session_name,device_id,body_location,device_ts_ms,wall_clock_ms,accel_x,accel_y,accel_z,gyro_x,gyro_y,gyro_z,quat_w,quat_x,quat_y,quat_z
1a,1,None,3247783,1779733222678,-2.36,8.83,2.0,-0.5625,-2.0625,-1.5,0.08605957,0.21704102,-0.5874634,-0.7748413
1a,3,None,3047786,1779733222679,14.146568,-7.206885,6.4343,-2.9642234,-11.500301,47.91922,-77.37611,-57.75056,331.72266,0.0
1a,1,None,3247796,1779733222678,-2.31,9.09,2.0,0.5,-1.1875,-0.75,0.08581543,0.21697998,-0.58740234,-0.77490234
1a,2,None,289791,1779733222678,-8.681812,2.4649422,1.8161523,-7.843362,-0.123759866,3.217619,11.82739,70.84947,190.79263,0.0
1a,4,None,29250714,1779733222678,11.307782,-8.171589,-0.6149554,-2.02496,6.8611116,0.643728,-103.6317,-56.04644,208.49843,0.0
1a,1,None,3247821,1779733222725,-2.35,8.96,1.77,1.3125,-0.9375,0.0,0.085632324,0.21691895,-0.5876465,-0.7747803
1a,1,None,3247836,1779733222728,-2.41,8.8,1.97,2.25,-1.4375,0.375,0.08538818,0.21691895,-0.58795166,-0.77453613
1a,1,None,3247862,1779733222728,-2.34,8.71,2.17,2.75,-1.25,2.1875,0.08526611,0.21673584,-0.5883179,-0.774353
1a,4,None,29250775,1779733222728,12.894223,-6.6617184,-2.6129622,-24.00496,-41.578888,-12.3062725,-103.73823,-56.104614,208.5883,0.0
1a,3,None,3047846,1779733222731,14.29971,-7.154243,6.8889365,1.3057764,-8.910301,50.15922,-77.29107,-57.738575,331.6548,0.0
1a,1,None,3247876,1779733222808,-2.46,9.23,2.02,2.125,-0.9375,3.0,0.08538818,0.21643066,-0.5886841,-0.7741699
1a,2,None,289851,1779733222808,-8.76556,2.4362285,1.7587247,-7.563362,-3.6237597,1.187619,12.022173,70.87283,190.9792,0.0
1a,1,None,3247896,1779733222810,-2.4,9.03,1.88,2.8125,-0.1875,5.0625,0.0859375,0.21588135,-0.5892334,-0.77386475
1a,1,None,3247916,1779733222810,-2.58,8.9,1.71,2.9375,0.9375,7.5625,0.08673096,0.21533203,-0.58984375,-0.7734375
1a,3,None,3047906,1779733222811,14.984057,-6.6015015,6.879365,6.4157767,-7.8603005,48.059223,-77.203545,-57.73511,331.58606,0.0
1a,4,None,29250834,1779733222812,14.707983,-6.5707912,-3.091527,-3.91496,-33.73889,-46.53627,-103.832466,-56.17957,208.67397,0.0
1a,1,None,3247941,1779733222818,-2.24,9.06,1.66,2.4375,2.8125,9.25,0.088012695,0.21484375,-0.59051514,-0.7728882
1a,2,None,289912,1779733222822,-9.143627,2.4362285,1.8759729,-11.4133625,-9.293759,-1.122381,12.210797,70.89481,191.16084,0.0
1a,1,None,3247961,1779733222877,-2.22,9.02,1.65,0.125,1.3125,11.625,0.089660645,0.21398926,-0.5909424,-0.77264404
1a,4,None,29250895,1779733222877,16.258532,-6.5875406,-3.7950165,1.0550399,31.361113,-82.72627,-103.90222,-56.26959,208.73018,0.0
1a,1,None,3247979,1779733222879,-2.37,9.16,1.81,-1.8125,0.3125,14.125,0.0914917,0.21264648,-0.59124756,-0.772583
1a,3,None,3047965,1779733222878,15.878972,-7.326526,7.1856465,-2.4742236,-18.9203,43.719223,-77.124146,-57.732018,331.52344,0.0
1a,2,None,290001,1779733222908,-8.73924,2.2208745,2.053042,-14.9133625,-5.02376,-3.0823812,12.407127,70.913414,191.35081,0.0
1a,1,None,3247998,1779733222908,-2.29,8.97,1.71,-2.5,2.9375,15.0625,0.093566895,0.21173096,-0.5916748,-0.77227783
1a,1,None,3248024,1779733222912,-2.1,8.9,2.0,-3.125,3.8125,18.1875,0.09765625,0.2098999,-0.59191895,-0.7720337
1a,3,None,3048026,1779733222913,14.661025,-7.254742,6.5970116,30.355776,-19.6903,36.649223,-77.03256,-57.7275,331.46005,0.0
1a,4,None,29250955,1779733222912,19.795124,-6.3793654,-1.942972,-186.75496,108.151115,-133.19627,-103.93773,-56.39636,208.69135,0.0
1a,1,None,3248042,1779733222915,-2.21,8.94,1.91,-4.25,4.25,20.4375,0.09918213,0.20922852,-0.59198,-0.77197266
1a,1,None,3248063,1779733222950,-1.95,9.17,1.7,-5.1875,4.625,22.375,0.10253906,0.20770264,-0.59210205,-0.7718506
1a,2,None,290061,1779733222952,-8.631562,2.161054,2.1750758,-13.863362,-0.053759813,-4.902381,12.61023,70.92953,191.5468,0.0
1a,1,None,3248098,1779733222988,-1.86,9.0,2.04,-4.875,3.8125,23.9375,0.10992432,0.2041626,-0.5923462,-0.77160645
1a,1,None,3248083,1779733222987,-1.78,9.27,1.95,-4.625,5.25,23.375,0.10620117,0.20605469,-0.5922241,-0.7717285
1a,4,None,29251015,1779733223006,19.713768,-4.958029,2.2037897,-319.12497,78.471115,-109.956276,-103.979225,-56.493595,208.62352,0.0
1a,3,None,3048085,1779733223012,15.362123,-9.326926,7.4679995,34.695778,-30.8903,35.80922,-76.948296,-57.709076,331.40616,0.0
1a,2,None,290122,1779733223036,-8.940237,2.1084118,1.9094725,-13.443362,3.5862403,-5.322381,12.790181,70.95832,191.72081,0.0
1a,1,None,3248123,1779733223036,-1.7,8.97,1.84,-5.4375,5.4375,24.1875,0.11376953,0.20227051,-0.5924072,-0.7714844
1a,1,None,3248138,1779733223038,-1.63,9.61,1.55,-6.0625,7.1875,25.75,0.11791992,0.20056152,-0.5925293,-0.77124023
1a,4,None,29251075,1779733223039,14.040385,0.8565303,6.2428746,-224.13496,-43.398888,-82.51627,-104.044334,-56.559963,208.62453,0.0
1a,3,None,3048146,1779733223070,15.943579,-9.204892,6.719046,-6.0442233,-45.8003,49.73922,-76.885704,-57.691788,331.3619,0.0
1a,1,None,3248163,1779733223071,-1.52,9.39,2.01,-4.3125,7.1875,23.75,0.12188721,0.19903564,-0.59265137,-0.77093506
1a,1,None,3248182,1779733223072,-1.47,9.24,2.19,-2.8125,6.375,24.75,0.12591553,0.19732666,-0.5928955,-0.7705078
1a,2,None,290181,1779733223073,-8.901952,2.0198774,2.07697,-11.483362,0.5762402,-2.802381,12.979983,70.98265,191.90373,0.0
1a,1,None,3248200,1779733223103,-1.54,8.81,2.18,3.5,5.6875,23.875,0.12963867,0.19573975,-0.59368896,-0.7696533
1a,4,None,29251135,1779733223108,3.6818562,-3.658726,12.366108,-222.66496,-133.4189,-24.206272,-104.1292,-56.561165,208.65651,0.0
1a,1,None,3248240,1779733223128,-0.93,9.08,2.71,13.75,-2.3125,21.375,0.1350708,0.19195557,-0.5975952,-0.76672363
1a,1,None,3248228,1779733223128,-1.06,9.2,2.36,6.5,3.5625,23.625,0.1329956,0.1940918,-0.59503174,-0.76849365
1a,3,None,3048206,1779733223131,15.4698,-6.5105734,5.9748783,-12.274223,-66.030304,47.70922,-76.836266,-57.701447,331.3305,0.0
1a,4,None,29251195,1779733223149,-5.2912292,-2.3307092,8.889336,-57.464962,-96.388885,11.073728,-104.15069,-56.540855,208.67513,0.0
1a,1,None,3248269,1779733223148,-0.82,9.48,2.36,20.3125,-10.9375,18.75,0.13549805,0.18737793,-0.6032715,-0.76330566
1a,2,None,290242,1779733223172,-8.968951,2.024663,1.9453648,-10.573362,-0.40375984,-6.092381,13.157391,71.010666,192.07428,0.0
1a,3,None,3048266,1779733223172,14.783059,-6.7498555,6.9798636,3.7557764,-52.8003,29.649221,-76.77146,-57.705257,331.2877,0.0
1a,1,None,3248287,1779733223194,-1.08,9.17,1.72,32.5625,-24.625,15.3125,0.13409424,0.18359375,-0.6083374,-0.760437
1a,1,None,3248306,1779733223194,-1.14,9.09,1.71,34.3125,-26.6875,15.625,0.13214111,0.17913818,-0.61395264,-0.7573242
1a,1,None,3248329,1779733223217,-1.09,9.16,1.6,36.0,-31.375,16.1875,0.12988281,0.1741333,-0.619751,-0.7541504
1a,2,None,290301,1779733223218,-8.904345,2.0773053,1.942972,-6.583362,2.53624,-15.402382,13.3323,71.038765,192.24022,0.0
1a,4,None,29251255,1779733223217,-6.1000032,-3.5342994,1.5840486,71.12504,-19.178888,-33.796272,-104.11755,-56.520184,208.6734,0.0
1a,1,None,3248347,1779733223237,-1.25,9.14,1.41,36.0,-30.1875,18.25,0.12786865,0.16912842,-0.6254883,-0.7508545
1a,1,None,3248368,1779733223239,-0.97,8.95,1.3,35.125,-26.8125,19.625,0.12640381,0.16436768,-0.6311035,-0.7474365
1a,3,None,3048326,1779733223260,14.306889,-7.8170547,7.051648,-8.494224,-28.7203,33.219223,-76.69926,-57.694744,331.23077,0.0
1a,1,None,3248385,1779733223277,-1.19,9.02,1.24,33.25,-24.8125,21.75,0.12542725,0.1595459,-0.6364746,-0.7440796
1a,4,None,29251315,1779733223278,-0.96500576,-6.3315086,-4.1850467,240.87505,14.631111,-63.966274,-104.082726,-56.473835,208.71477,0.0
1a,2,None,290391,1779733223277,-8.741632,1.7518812,1.4045868,-10.783361,0.15624017,-26.60238,13.44814,71.08085,192.35042,0.0
1a,1,None,3248409,1779733223296,-0.96,9.01,1.35,32.3125,-23.5,22.4375,0.124694824,0.15533447,-0.6413574,-0.7409668
1a,1,None,3248425,1779733223297,-0.41,9.42,1.01,30.5625,-18.125,23.75,0.12475586,0.15118408,-0.6460571,-0.7376709
1a,3,None,3048386,1779733223317,15.721046,-6.273684,5.611169,10.895777,-35.2303,42.039223,-76.62598,-57.710052,331.18027,0.0
1a,1,None,3248448,1779733223333,-0.09,9.89,0.55,27.375,-22.5625,24.3125,0.124694824,0.14648438,-0.65063477,-0.73461914
1a,2,None,290452,1779733223334,-8.767954,1.0818911,1.308874,-10.013362,5.47624,-25.132381,13.5045,71.135315,192.40442,0.0
1a,1,None,3248485,1779733223373,-0.85,9.32,0.42,22.6875,-20.875,26.4375,0.12463379,0.13659668,-0.6589966,-0.72906494
1a,3,None,3048476,1779733223374,14.404994,-3.8449693,2.7565317,72.005775,-48.460304,34.54922,-76.576515,-57.76739,331.16998,0.0
1a,4,None,29251375,1779733223373,4.835196,-1.579363,-4.7377887,10.43504,-55.15889,-59.34627,-104.23385,-56.495884,208.85689,0.0
1a,1,None,3248465,1779733223373,-0.42,9.66,0.26,26.3125,-22.625,23.25,0.12445068,0.14160156,-0.6550293,-0.73168945
1a,1,None,3248507,1779733223375,-0.99,8.92,0.59,19.0,-15.0,30.3125,0.12597656,0.13171387,-0.6624756,-0.72662354
1a,2,None,290511,1779733223400,-8.751204,0.9120006,1.6438692,-9.733362,15.48624,-19.18238,13.557785,71.193665,192.45638,0.0
1a,1,None,3248532,1779733223416,-0.24,8.73,0.28,15.5625,-15.6875,32.5625,0.12786865,0.12664795,-0.66552734,-0.72436523
1a,1,None,3248546,1779733223416,-0.58,9.06,0.45,10.0625,-21.0625,36.25,0.13049316,0.121154785,-0.6679077,-0.7225952
1a,4,None,29251435,1779733223417,16.926128,-11.076476,2.0147567,41.585037,-44.51889,-40.726273,-104.15754,-56.514324,208.81561,0.0
1a,3,None,3048536,1779733223433,16.192432,-6.300005,4.599005,22.445776,-45.7303,39.16922,-76.51013,-57.797565,331.13043,0.0
1a,1,None,3248571,1779733223452,0.09,9.15,-0.11,8.3125,-17.75,36.0,0.13256836,0.11505127,-0.670105,-0.7211914
1a,2,None,290571,1779733223453,-9.1508045,0.5841839,1.5888343,-9.103362,7.1562405,-11.342381,13.569974,71.25279,192.46988,0.0
1a,1,None,3248591,1779733223485,-0.4,9.75,0.0,6.0625,-13.0,39.375,0.13543701,0.10900879,-0.6719971,-0.71984863
1a,1,None,3248613,1779733223485,0.28,9.72,-0.11,5.5,-4.9375,40.9375,0.1394043,0.103637695,-0.673584,-0.7184448
1a,3,None,3048596,1779733223485,12.962122,-5.2710915,4.101298,-27.184223,-27.0403,57.22922,-76.44872,-57.811916,331.0778,0.0
1a,1,None,3248631,1779733223507,0.19,9.71,0.61,3.875,-9.9375,43.1875,0.14355469,0.097961426,-0.6750488,-0.717041
1a,4,None,29251525,1779733223507,-1.0678971,-4.414858,5.563313,-185.35497,-73.28889,-20.496271,-104.20256,-56.499577,208.81383,0.0
1a,2,None,290631,1779733223507,-8.803846,0.88567954,1.5744772,-0.9833622,-2.0137596,-15.892382,13.620788,71.30556,192.51654,0.0
1a,1,None,3248651,1779733223533,-0.16,9.47,0.56,2.4375,-24.875,41.5,0.14642334,0.09069824,-0.6765137,-0.7160034
1a,1,None,3248666,1779733223533,0.23,9.22,-0.14,0.3125,-32.9375,39.1875,0.14758301,0.08239746,-0.6779785,-0.71539307
1a,3,None,3048656,1779733223538,13.756538,-6.90539,5.5034924,-66.45422,19.6497,79.06922,-76.37404,-57.791195,330.99484,0.0
1a,1,None,3248689,1779733223557,0.16,10.55,0.32,-2.0625,-36.1875,36.3125,0.14782715,0.073791504,-0.6791992,-0.7150879
1a,4,None,29251584,1779733223560,-1.2066808,7.800502,-8.556734,84.63504,136.50111,-90.706276,-104.21526,-56.56307,208.82785,0.0
1a,2,None,290691,1779733223563,-9.650906,0.5506844,1.2921243,-1.0533619,-6.4937596,-18.482382,13.623096,71.36116,192.51689,0.0
1a,1,None,3248706,1779733223597,0.59,10.36,-0.44,-6.4375,-36.25,29.4375,0.14752197,0.06555176,-0.6798096,-0.7154541
1a,1,None,3248730,1779733223597,1.54,9.24,0.47,-6.125,-32.5625,21.3125,0.14654541,0.05859375,-0.68011475,-0.71588135
1a,3,None,3048715,1779733223599,15.28316,-3.8258266,4.034299,-63.374226,20.489698,92.99922,-76.32452,-57.811745,330.9346,0.0
1a,1,None,3248751,1779733223623,7.3,8.74,-0.74,-2.5,-27.75,13.625,0.14630127,0.05456543,-0.6804199,-0.7160034
1a,2,None,290751,1779733223624,-9.272839,-0.76058245,2.0171494,-8.123362,9.1162405,-19.672382,13.452921,71.415886,192.3564,0.0
1a,1,None,3248775,1779733223651,-1.33,9.32,0.71,3.375,10.0,23.9375,0.15081787,0.048828125,-0.68115234,-0.7147827
1a,4,None,29251675,1779733223652,5.151049,-5.0393844,-0.059820566,-238.34496,-33.528885,71.903725,-104.22754,-56.489796,208.77148,0.0
1a,1,None,3248791,1779733223651,1.98,8.89,0.95,5.4375,22.125,22.0625,0.15344238,0.048950195,-0.6812744,-0.7141113
1a,3,None,3048776,1779733223677,15.852653,-6.9173536,3.8165522,-48.464222,-4.1503005,66.53922,-76.26591,-57.833836,330.87433,0.0
1a,1,None,3248816,1779733223691,2.69,8.78,0.24,3.9375,24.875,20.6875,0.16149902,0.049987793,-0.6812134,-0.7122803
1a,2,None,290811,1779733223693,-9.093377,0.12476195,1.1724831,-19.183363,5.3362403,-6.4423814,13.42555,71.47615,192.33624,0.0
1a,1,None,3248839,1779733223726,0.58,9.76,0.06,0.4375,15.5,16.5625,0.16491699,0.050048828,-0.6809082,-0.711792
1a,3,None,3048835,1779733223726,14.445672,-6.5416803,4.287938,-8.564223,-11.150301,25.239222,-76.182625,-57.854366,330.8044,0.0
1a,1,None,3248854,1779733223748,1.58,9.29,0.3,-0.25,12.5,13.25,0.16870117,0.05053711,-0.68066406,-0.7111206
1a,1,None,3248875,1779733223748,0.85,9.63,0.13,0.8125,19.125,16.125,0.17260742,0.05078125,-0.6803589,-0.7104492
1a,2,None,290872,1779733223748,-9.193876,0.2683313,1.5696917,-18.973362,10.09624,4.547619,13.412719,71.536644,192.3311,0.0
1a,4,None,29251735,1779733223748,8.225826,5.9125643,4.802395,-84.34496,84.28111,22.203728,-104.186646,-56.532642,208.69603,0.0
1a,1,None,3248894,1779733223774,1.47,9.3,0.34,0.9375,20.375,16.5,0.17675781,0.051696777,-0.68029785,-0.7094116
1a,3,None,3048896,1779733223779,16.455643,-5.881262,4.3334017,121.77577,-14.230301,33.49922,-76.06992,-57.89165,330.74902,0.0
1a,1,None,3248919,1779733223798,1.79,9.32,0.54,-0.25,12.875,15.0,0.17962646,0.051452637,-0.6800537,-0.70892334
1a,1,None,3248936,1779733223799,2.04,9.15,0.65,0.5625,5.4375,9.0625,0.18151855,0.05102539,-0.6799927,-0.7085571
1a,2,None,290931,1779733223803,-9.004843,0.115190655,1.1078769,-10.853362,0.5062402,0.557619,13.3948765,71.59473,192.31784,0.0
1a,1,None,3248953,1779733223825,1.76,9.09,0.43,0.5,5.1875,7.6875,0.18188477,0.05053711,-0.67993164,-0.7085571
1a,4,None,29251928,1779733223829,-0.13230346,-4.9699926,9.3200445,-145.10497,127.82111,3.163728,-103.97345,-56.607323,208.43356,0.0
1a,3,None,3048956,1779733223848,15.510478,-10.1357,4.63729,-34.604225,0.18969917,32.79922,-75.99693,-57.856636,330.6784,0.0
1a,1,None,3248979,1779733223855,1.75,9.31,0.22,-0.9375,3.0625,4.375,0.18328857,0.05029297,-0.6796875,-0.70843506
1a,1,None,3248997,1779733223856,1.74,9.34,0.12,-2.3125,0.8125,0.6875,0.18371582,0.050354004,-0.6793823,-0.70861816
1a,2,None,290992,1779733223875,-8.940237,0.17261839,1.1389836,-5.603362,0.01624024,-1.6823812,13.381039,71.652596,192.30638,0.0
1a,1,None,3249018,1779733223902,1.83,9.43,0.32,-2.75,-1.625,0.125,0.18334961,0.049987793,-0.6793213,-0.70880127
1a,3,None,3049016,1779733223903,14.357137,-6.180364,3.6634116,-0.7242236,10.829699,48.47922,-75.909,-57.88078,330.60394,0.0
1a,1,None,3249052,1779733223924,1.39,9.21,0.29,-3.875,-5.25,-1.4375,0.18151855,0.04840088,-0.67907715,-0.7095947
1a,4,None,29251947,1779733223924,3.2655046,4.4673,5.036892,-104.15496,204.89111,14.503728,-103.86916,-56.650547,208.2772,0.0
1a,2,None,291051,1779733223924,-8.899559,-0.2724466,1.6941184,-1.9633622,-2.2937598,-3.222381,13.285735,71.70826,192.21616,0.0
1a,1,None,3249037,1779733223924,1.38,9.29,0.24,-3.6875,-6.125,-1.375,0.18255615,0.04937744,-0.6791992,-0.7091675
1a,1,None,3249075,1779733223949,1.32,9.36,0.47,-3.25,-1.0625,1.6875,0.18121338,0.047607422,-0.67852783,-0.7102661
1a,1,None,3249092,1779733223950,1.43,9.24,0.65,-2.9375,0.5,2.875,0.18139648,0.04736328,-0.67840576,-0.7103882
1a,3,None,3049076,1779733223958,16.252253,-7.300205,5.706882,-41.184223,14.3997,70.24922,-75.827736,-57.875942,330.52353,0.0
1a,1,None,3249115,1779733223986,1.65,9.27,0.45,-2.4375,-0.5,4.8125,0.18237305,0.04675293,-0.6779785,-0.71051025
1a,4,None,29252005,1779733223986,8.118149,0.5669991,9.963714,-20.22496,196.56111,40.33373,-103.7118,-56.676315,208.10132,0.0
1a,2,None,291111,1779733223986,-9.435552,-0.41601595,1.2586247,-4.693362,0.8562402,0.06761885,13.216537,71.76624,192.15202,0.0
1a,1,None,3249137,1779733224007,1.78,9.34,0.43,-2.0625,-4.125,4.8125,0.18261719,0.045715332,-0.67785645,-0.71069336
1a,3,None,3049136,1779733224029,15.864616,-6.35504,4.929215,-8.844223,-7.5103006,40.359222,-75.747665,-57.896496,330.45627,0.0
1a,1,None,3249154,1779733224047,1.63,9.5,0.33,-2.0,-5.0,4.75,0.18255615,0.044677734,-0.67803955,-0.7106323
1a,1,None,3249180,1779733224047,1.5,9.5,0.23,-2.0,-0.8125,6.625,0.18273926,0.044006348,-0.6784668,-0.71014404
1a,4,None,29252095,1779733224047,1.2220342,4.515156,11.684154,-94.35496,103.181114,81.56372,-103.636,-56.673214,207.9875,0.0
1a,2,None,291171,1779733224047,-8.990486,0.048191622,1.1700902,-6.163362,4.5662403,-0.352381,13.191315,71.825836,192.13019,0.0
1a,1,None,3249196,1779733224075,1.65,9.2,0.35,-2.875,-1.375,7.5,0.18389893,0.043823242,-0.67871094,-0.70965576
1a,3,None,3049196,1779733224077,15.577477,-8.154443,4.5822554,-84.79423,27.559698,44.97922,-75.668465,-57.89259,330.3612,0.0
1a,1,None,3249236,1779733224098,1.73,9.43,0.37,-4.5625,-4.8125,8.8125,0.18457031,0.040893555,-0.67858887,-0.70977783
1a,4,None,29252155,1779733224098,6.2373905,-2.1967115,3.9098723,7.28504,-62.718887,34.17373,-103.59018,-56.678345,207.9615,0.0
1a,1,None,3249226,1779733224098,1.62,9.22,0.48,-4.1875,-4.6875,8.3125,0.18426514,0.042419434,-0.67871094,-0.70965576
1a,2,None,291231,1779733224103,-9.277625,-0.2915892,1.4620147,-3.7133622,-2.0137596,-1.402381,13.117093,71.882545,192.06068,0.0
1a,1,None,3249260,1779733224125,1.78,9.44,0.38,-4.875,-4.5625,9.8125,0.18511963,0.039245605,-0.67852783,-0.70977783
1a,3,None,3049255,1779733224147,14.278175,-7.331312,3.050849,-37.824223,2.4996996,53.65922,-75.59551,-57.9142,330.29022,0.0
1a,1,None,3249278,1779733224155,1.87,9.31,0.45,-5.5,-6.4375,10.375,0.18554688,0.03729248,-0.67840576,-0.7098999
1a,1,None,3249296,1779733224156,2.04,9.29,0.63,-5.0,-8.3125,10.5,0.18597412,0.03503418,-0.67822266,-0.710083
1a,2,None,291291,1779733224181,-9.093377,-0.3442313,1.4524434,-2.943362,-2.4337597,-3.0823812,13.033734,71.93898,191.98204,0.0
1a,1,None,3249316,1779733224186,2.04,9.23,0.54,-3.875,-11.25,9.875,0.18603516,0.032470703,-0.67822266,-0.7102051
1a,4,None,29252215,1779733224189,2.9687948,-5.953443,6.7956166,-47.734962,-95.12888,-2.856272,-103.58363,-56.66216,207.95998,0.0
1a,3,None,3049316,1779733224207,16.094326,-5.9195466,4.1180477,-19.694223,-12.830301,44.97922,-75.53358,-57.94893,330.2363,0.0
1a,1,None,3249339,1779733224216,1.83,9.37,0.48,-3.625,-13.625,10.0,0.18560791,0.029663086,-0.67840576,-0.7102661
1a,1,None,3249356,1779733224229,1.9,9.28,0.43,-1.75,-13.125,8.9375,0.1854248,0.02746582,-0.678772,-0.710022
1a,2,None,291351,1779733224231,-9.390087,-0.4303729,1.5122639,-9.383362,-3.2037597,0.34761906,12.943127,71.99447,191.89896,0.0
1a,1,None,3249376,1779733224258,2.15,9.41,0.35,0.6875,-15.3125,6.125,0.18450928,0.024963379,-0.6795044,-0.7095947
1a,4,None,29252275,1779733224258,3.3013973,-1.9550364,7.0540414,-50.81496,-91.138885,-1.316272,-103.58233,-56.663155,207.96112,0.0
1a,3,None,3049375,1779733224259,16.194824,-9.731314,3.3930225,-45.734222,-7.020301,44.769222,-75.45998,-57.927505,330.1637,0.0
1a,1,None,3249396,1779733224283,2.04,9.55,0.17,0.9375,-15.4375,4.375,0.18377686,0.02319336,-0.680542,-0.70892334
1a,1,None,3249422,1779733224283,1.91,9.39,0.42,0.75,-13.5625,2.875,0.18231201,0.02130127,-0.6814575,-0.7084961
1a,2,None,291412,1779733224283,-9.318303,-0.38251647,1.4189439,-13.023362,0.5062402,4.477619,12.865699,72.05133,191.83011,0.0
1a,1,None,3249440,1779733224307,2.1,9.51,0.5,1.125,-14.75,-0.3125,0.18066406,0.01965332,-0.68218994,-0.70825195
1a,4,None,29252365,1779733224309,8.47468,-0.49541447,1.2921243,28.77504,-37.028885,-61.16627,-103.56783,-56.737175,207.96706,0.0
1a,3,None,3049436,1779733224331,14.069999,-9.5494585,0.021535404,-29.494223,-42.0203,69.269226,-75.60905,-57.898987,330.29205,0.0
1a,1,None,3249461,1779733224337,2.34,9.16,0.49,0.375,-21.9375,-3.3125,0.17803955,0.017578125,-0.6828613,-0.708313
1a,2,None,291471,1779733224355,-9.086199,-0.5141217,1.5744772,-6.6533623,-2.15376,5.877619,12.763152,72.10543,191.7353,0.0
1a,1,None,3249501,1779733224373,1.97,9.39,0.7,0.0,-26.25,-5.625,0.17077637,0.012207031,-0.6843262,-0.70880127
1a,4,None,29252425,1779733224373,9.663912,-2.4958143,3.3188448,107.52504,-79.37888,-97.21628,-103.51992,-56.79957,207.97752,0.0
1a,1,None,3249489,1779733224373,2.01,9.34,0.69,-0.625,-28.0625,-3.8125,0.17254639,0.013366699,-0.68395996,-0.70874023
1a,3,None,3049496,1779733224379,19.642881,-6.6804647,-2.5052855,67.31577,-170.4703,151.72922,-75.771286,-57.914276,330.487,0.0
1a,1,None,3249524,1779733224399,2.02,9.83,0.42,3.25,-24.625,-8.4375,0.16479492,0.009216309,-0.6859131,-0.70874023
1a,1,None,3249541,1779733224399,2.02,10.11,0.7,3.875,-33.6875,-14.375,0.16192627,0.008056641,-0.6865845,-0.70874023
1a,2,None,291531,1779733224404,-9.236947,-0.7677609,1.1078769,-13.513362,3.7262402,12.387619,12.679084,72.16247,191.66116,0.0
1a,1,None,3249566,1779733224427,2.57,9.47,1.5,0.125,-63.1875,-25.3125,0.1473999,0.0021362305,-0.6890259,-0.7095947
1a,4,None,29252485,1779733224429,7.833403,-2.98395,2.912065,-178.49496,-140.2789,-56.336273,-103.58934,-56.83467,208.01208,0.0
1a,3,None,3049556,1779733224448,18.975285,-6.9436746,1.3567305,120.44577,-232.77031,111.12923,-75.88359,-57.970226,330.6647,0.0
1a,1,None,3249584,1779733224456,3.19,9.76,1.83,-7.4375,-101.6875,-36.25,0.13000488,-0.0068359375,-0.69055176,-0.7114868
1a,2,None,291591,1779733224477,-8.758382,0.10801218,1.337588,-21.073362,-0.8237598,10.07762,12.657207,72.21892,191.64836,0.0
1a,1,None,3249604,1779733224497,2.88,9.37,2.58,-13.1875,-133.125,-44.8125,0.10772705,-0.018493652,-0.6916504,-0.7138672
1a,1,None,3249630,1779733224498,4.31,8.79,1.87,-25.5625,-188.5625,-54.6875,0.080322266,-0.03387451,-0.69189453,-0.7166748
1a,4,None,29252545,1779733224498,0.83439696,0.23918168,8.894121,-201.87495,-115.42889,-85.38628,-103.67531,-56.862625,208.0503,0.0
1a,3,None,3049616,1779733224499,13.682362,-12.837196,16.141981,77.465775,-23.750301,113.36922,-75.80528,-57.911446,330.63068,0.0
1a,1,None,3249646,1779733224531,3.14,8.38,-0.18,-34.75,-243.6875,-56.25,0.046569824,-0.055480957,-0.69085693,-0.71936035
1a,2,None,291651,1779733224531,-9.227375,0.3305447,1.3686945,-13.093363,-8.31376,-5.532381,12.647625,72.273415,191.64282,0.0
1a,1,None,3249666,1779733224550,2.76,8.41,-0.42,-49.5,-307.875,-57.8125,0.005004883,-0.08459473,-0.6871948,-0.7214966
1a,1,None,3249690,1779733224550,1.04,8.06,0.65,-59.75,-351.1875,-61.625,-0.042907715,-0.11920166,-0.6801758,-0.72198486
1a,4,None,29252605,1779733224550,1.1861418,-8.822437,9.255438,-123.54496,-72.098885,-44.366272,-103.69407,-56.8561,208.04524,0.0
1a,3,None,3049676,1779733224559,8.614363,-6.4124684,7.5589266,-73.80423,91.0497,96.98923,-75.7103,-57.853027,330.51642,0.0
1a,1,None,3249716,1779733224588,-0.54,8.46,0.63,-59.8125,-332.4375,-58.5,-0.11114502,-0.16760254,-0.66522217,-0.7190552
1a,2,None,291711,1779733224588,-9.311124,-0.03316435,1.5050855,3.4966378,-2.4337597,-14.982382,12.584756,72.33117,191.58015,0.0
1a,1,None,3249739,1779733224608,-2.77,8.76,-0.51,-43.625,-237.375,-46.9375,-0.14056396,-0.18707275,-0.6574707,-0.71624756
1a,4,None,29252665,1779733224610,11.745668,5.601498,9.104691,-239.32497,-45.638885,8.413728,-103.76031,-56.886665,208.0388,0.0
1a,3,None,3049736,1779733224618,10.1314125,-9.60928,-6.108876,106.935776,-51.4003,59.18922,-75.82556,-57.828247,330.65753,0.0
1a,1,None,3249755,1779733224646,-2.61,9.04,-1.66,-20.4375,-58.8125,-22.9375,-0.15588379,-0.1954956,-0.65289307,-0.7149658
1a,1,None,3249778,1779733224646,-0.38,8.46,-1.37,-17.5625,-10.0,-11.5,-0.15740967,-0.19519043,-0.6519165,-0.7156372
1a,2,None,291771,1779733224646,-8.554993,-0.45430112,0.41635114,0.836638,-8.94376,-7.352381,12.530032,72.38735,191.52676,0.0
1a,1,None,3249794,1779733224665,-2.49,8.63,1.62,-15.6875,65.3125,13.625,-0.14605713,-0.18597412,-0.65063477,-0.72161865
1a,4,None,29252725,1779733224669,7.5486574,-2.4431725,5.328816,-1.7449601,-109.47889,-94.416275,-103.7594,-56.93096,208.06213,0.0
1a,3,None,3049795,1779733224695,13.938394,-6.4938245,3.3236306,-32.154224,44.9197,-12.000778,-75.72088,-57.869556,330.55078,0.0
1a,1,None,3249816,1779733224703,-5.35,12.24,3.86,-16.25,84.0625,23.4375,-0.1373291,-0.1776123,-0.6500244,-0.72595215
1a,1,None,3249835,1779733224703,5.97,8.81,1.67,-23.4375,9.9375,-14.875,-0.13769531,-0.17181396,-0.64868164,-0.7285156
1a,1,None,3249855,1779733224731,-0.43,9.48,1.3,-28.0,-15.6875,-2.625,-0.14160156,-0.17340088,-0.6448364,-0.7307739
1a,4,None,29252785,1779733224731,3.5119653,-5.8361945,4.948357,96.32504,-79.72889,-55.00627,-103.697174,-56.930458,208.05542,0.0
1a,2,None,291832,1779733224732,-9.090984,-0.9567939,1.18684,14.6266365,4.3562403,10.147619,12.4293785,72.44301,191.4271,0.0
1a,3,None,3049856,1779733224750,15.89333,-11.035401,5.8719864,-72.33423,49.819702,28.249222,-75.63809,-57.82773,330.4516,0.0
1a,1,None,3249875,1779733224763,-0.46,10.31,0.52,-23.5,-11.75,-11.3125,-0.14587402,-0.17376709,-0.6416626,-0.732666
1a,1,None,3249894,1779733224763,0.25,9.47,0.68,-19.75,3.0625,-10.3125,-0.14691162,-0.17150879,-0.6397705,-0.7346802
1a,1,None,3249920,1779733224790,0.53,9.41,1.32,-17.375,-2.9375,-9.3125,-0.14819336,-0.16998291,-0.6378174,-0.7364502
1a,4,None,29252845,1779733224791,12.291232,10.619247,3.4241292,83.79504,34.02111,-44.366272,-103.65107,-56.998707,208.03699,0.0
1a,2,None,291891,1779733224792,-9.545621,0.24201024,1.5792629,19.036638,11.916241,-2.7323809,12.421444,72.504326,191.4132,0.0
1a,3,None,3049916,1779733224797,15.405194,-6.2162566,-0.95952183,-71.564224,13.9797,30.139221,-75.731445,-57.867363,330.50836,0.0
1a,1,None,3249940,1779733224818,1.14,9.03,1.46,-19.375,-25.375,-6.125,-0.15185547,-0.17126465,-0.6351929,-0.7376709
1a,1,None,3249956,1779733224818,-0.06,9.25,1.21,-18.875,-24.625,-5.625,-0.15625,-0.17376709,-0.6321411,-0.73876953
1a,1,None,3249976,1779733224845,0.11,9.8,0.98,-17.5625,-14.375,-5.125,-0.15924072,-0.17480469,-0.6296997,-0.73999023
1a,4,None,29252905,1779733224849,7.177769,1.2082758,5.223532,262.85504,7.4211116,-48.706272,-103.510544,-57.050133,207.99692,0.0
1a,2,None,291981,1779733224866,-9.356588,-0.779725,0.85902333,22.396637,15.48624,-21.422382,12.326307,72.56859,191.31314,0.0
1a,3,None,3049976,1779733224866,16.505892,-11.116757,3.87398,20.345776,41.1397,7.9492226,-75.63106,-57.817352,330.42236,0.0
1a,1,None,3249996,1779733224875,0.31,9.53,1.28,-17.9375,-9.1875,-7.25,-0.1616211,-0.17486572,-0.6273804,-0.74139404
1a,1,None,3250022,1779733224908,-0.12,9.27,1.31,-18.8125,-5.5625,-7.625,-0.1638794,-0.17437744,-0.62506104,-0.74298096
1a,1,None,3250041,1779733224908,0.29,9.44,1.6,-18.125,-1.0,-7.6875,-0.16589355,-0.1729126,-0.623291,-0.74438477
1a,4,None,29252965,1779733224908,5.821039,-1.7947172,4.0295134,277.76505,30.311111,-108.97627,-103.34064,-57.11161,207.93492,0.0
1a,2,None,292041,1779733224913,-9.107734,-1.4305727,1.105484,18.966637,11.496241,-17.782381,12.171693,72.62634,191.15771,0.0
1a,3,None,3050036,1779733224917,14.211175,-13.571793,5.3479586,39.87578,24.6197,50.36922,-75.56804,-57.739136,330.37872,0.0
1a,1,None,3250056,1779733224946,0.16,9.18,2.07,-16.5,-1.4375,-7.875,-0.16802979,-0.17211914,-0.62127686,-0.7457886
1a,1,None,3250078,1779733224946,0.02,9.3,1.82,-15.6875,-1.4375,-7.1875,-0.16955566,-0.17114258,-0.61938477,-0.7471924
1a,1,None,3250100,1779733224966,-0.05,9.52,1.64,-15.3125,-0.3125,-6.625,-0.17089844,-0.17004395,-0.61761475,-0.7485962
1a,4,None,29253025,1779733224969,4.9117665,-19.99692,-2.778067,-77.62496,-219.79889,-15.456272,-103.4675,-57.02916,208.05988,0.0
1a,2,None,292101,1779733224983,-8.983308,-1.210433,0.6915257,1.8166375,18.42624,-9.382381,12.056452,72.68943,191.04657,0.0
1a,3,None,3050096,1779733224984,14.455243,-14.308783,6.163911,-68.064224,52.1297,61.91922,-75.5249,-57.65754,330.3156,0.0
1a,1,None,3250117,1779733225011,-0.13,9.37,1.44,-15.9375,2.25,-5.5625,-0.17193604,-0.16882324,-0.6158447,-0.7501221
1a,1,None,3250140,1779733225011,0.01,9.26,2.06,-15.25,2.3125,-5.625,-0.17279053,-0.16741943,-0.61413574,-0.75164795
1a,1,None,3250157,1779733225031,-0.14,9.23,2.12,-14.75,-0.125,-5.0,-0.17382812,-0.16638184,-0.6123657,-0.75305176
1a,4,None,29253084,1779733225031,5.849753,8.915557,1.6438692,-261.58496,-31.708887,79.53372,-103.56931,-57.046097,208.071,0.0
1a,2,None,292162,1779733225032,-9.148412,-1.294182,0.42113677,-5.5333624,19.47624,-3.712381,11.954319,72.75332,190.95093,0.0
1a,3,None,3050156,1779733225050,13.498114,-4.2756777,1.0887343,-165.57423,36.1697,94.81922,-75.57707,-57.697544,330.30878,0.0
1a,1,None,3250177,1779733225055,-0.32,9.33,1.75,-14.1875,2.0,-3.6875,-0.17468262,-0.16540527,-0.6107178,-0.75445557
1a,1,None,3250197,1779733225055,-0.12,9.6,1.72,-14.1875,5.5625,-1.4375,-0.17547607,-0.16412354,-0.6092529,-0.75567627
1a,1,None,3250224,1779733225087,0.15,9.45,2.22,-13.625,4.875,-0.25,-0.17529297,-0.1630249,-0.607605,-0.7572632
1a,4,None,29253145,1779733225090,9.058528,6.642376,-0.5407779,-9.58496,-34.578888,-30.856274,-103.616806,-57.112648,208.11581,0.0
1a,2,None,292221,1779733225094,-8.971343,-1.4186087,-0.0023928226,-9.943362,10.65624,3.357619,11.864515,72.81468,190.86903,0.0
1a,3,None,3050215,1779733225108,15.823938,-3.2682993,4.8119664,123.035774,7.9596996,35.949223,-75.4587,-57.734966,330.24524,0.0
1a,1,None,3250237,1779733225122,0.0,9.36,2.27,-11.375,2.1875,0.3125,-0.17541504,-0.16235352,-0.60614014,-0.75860596
1a,1,None,3250257,1779733225122,0.26,9.35,2.34,-7.4375,3.0,0.4375,-0.17510986,-0.16156006,-0.6052246,-0.7595825
1a,1,None,3250282,1779733225149,0.05,9.32,2.3,-5.125,0.0625,0.3125,-0.1751709,-0.16131592,-0.6044922,-0.7601929
1a,4,None,29253205,1779733225149,4.481059,0.28703883,3.0221348,201.81503,26.741112,-109.11627,-103.491425,-57.18557,208.06961,0.0
1a,2,None,292282,1779733225166,-9.306339,-1.1793263,0.17706887,-6.023362,11.076241,4.267619,11.786334,72.87622,190.797,0.0
1a,3,None,3050276,1779733225166,13.232511,-9.4776745,2.9647074,70.88577,-12.410301,26.849222,-75.40171,-57.66543,330.2215,0.0
1a,1,None,3250297,1779733225183,-0.09,9.21,2.23,-3.9375,-1.75,0.4375,-0.17437744,-0.15997314,-0.60406494,-0.7609863
1a,1,None,3250317,1779733225184,0.05,9.19,2.23,-3.0625,-1.6875,0.3125,-0.17486572,-0.15985107,-0.6035156,-0.7612915
1a,1,None,3250342,1779733225207,0.03,9.08,2.25,-2.5625,-3.3125,-0.75,-0.17541504,-0.15985107,-0.60302734,-0.7615967
1a,4,None,29253265,1779733225208,1.9901302,-4.3406806,-0.74656063,213.99504,50.19111,-81.46628,-103.38587,-57.144238,208.03807,0.0
1a,2,None,292341,1779733225224,-8.947415,-0.7414399,-0.22731815,-7.283362,7.3662405,2.3076189,11.742234,72.93777,190.75766,0.0
1a,3,None,3050335,1779733225225,12.878373,-10.023238,5.3336015,-49.444225,-8.840301,16.349222,-75.35068,-57.623302,330.16614,0.0
1a,1,None,3250383,1779733225254,0.1,9.28,1.99,-2.625,-2.75,-4.5,-0.17700195,-0.1595459,-0.60235596,-0.7618408
1a,1,None,3250357,1779733225254,0.18,9.15,2.21,-2.5,-3.6875,-2.375,-0.17602539,-0.159729,-0.60266113,-0.7617798
1a,1,None,3250397,1779733225272,-0.01,9.35,2.0,-2.6875,-1.375,-6.8125,-0.1774292,-0.15838623,-0.60235596,-0.7619629
1a,4,None,29253325,1779733225272,5.375974,3.1608186,-0.8805587,184.24504,73.71111,-42.616272,-103.322395,-57.227272,208.02707,0.0
1a,2,None,292401,1779733225274,-8.978521,-0.9352585,-0.3804588,-4.483362,3.86624,0.907619,11.688947,72.998375,190.70837,0.0
1a,3,None,3050396,1779733225292,10.619548,-8.714363,3.993621,-57.424225,-12.970301,3.7492218,-75.31425,-57.57598,330.12097,0.0
1a,1,None,3250424,1779733225297,0.1,9.3,2.17,-2.9375,-1.8125,-9.6875,-0.17883301,-0.15753174,-0.6022339,-0.76190186
1a,1,None,3250438,1779733225299,-0.09,9.16,2.24,-3.25,-2.5625,-11.25,-0.18066406,-0.15655518,-0.6020508,-0.7618408
1a,1,None,3250464,1779733225327,-0.21,9.28,2.22,-3.5625,-2.5,-11.4375,-0.18341064,-0.15509033,-0.6017456,-0.76171875
1a,4,None,29253385,1779733225330,2.6553352,-1.4884359,-5.493921,-3.28496,-6.5088882,-1.4562719,-103.45411,-57.21556,208.13809,0.0
1a,2,None,292461,1779733225334,-9.358981,-1.3922876,0.10528419,-5.3233624,-0.89375985,2.937619,11.595926,73.0555,190.62146,0.0
1a,3,None,3050456,1779733225350,14.653847,-10.604693,7.3459654,155.16577,-14.1603,19.009222,-75.18528,-57.546272,330.06134,0.0
1a,1,None,3250479,1779733225357,-0.23,9.37,2.18,-3.0625,-1.625,-10.875,-0.1842041,-0.15460205,-0.6016846,-0.7616577
1a,1,None,3250501,1779733225358,-0.34,9.34,2.2,-2.4375,-1.5625,-9.5,-0.18597412,-0.15332031,-0.60162354,-0.76153564
1a,1,None,3250523,1779733225387,-0.39,9.18,2.14,-1.8125,-1.625,-7.75,-0.1876831,-0.15216064,-0.6016846,-0.7612915
1a,4,None,29253445,1779733225389,5.4477587,-3.859723,-5.3312087,11.90504,-32.40889,-12.936272,-103.57993,-57.1997,208.25388,0.0
1a,2,None,292521,1779733225393,-9.191483,-1.1266843,-0.12921242,-3.9933622,-2.2937598,3.007619,11.525217,73.113144,190.55539,0.0
1a,3,None,3050516,1779733225410,13.297117,-12.459131,4.493721,27.765776,-26.830301,79.13922,-75.166916,-57.458927,330.06268,0.0
1a,1,None,3250540,1779733225423,-0.48,9.02,2.36,-0.875,-2.0,-5.125,-0.18914795,-0.15112305,-0.60162354,-0.76116943
1a,1,None,3250559,1779733225423,-0.56,9.04,2.37,0.6875,-2.375,-1.8125,-0.1899414,-0.15130615,-0.6016846,-0.7609253
1a,1,None,3250583,1779733225448,-0.63,9.19,2.28,1.125,-4.0,2.125,-0.19055176,-0.15142822,-0.6016846,-0.7608032
1a,4,None,29253505,1779733225450,3.9570303,-1.107977,-5.6614184,-91.83496,-14.698889,58.043728,-103.73909,-57.1803,208.36084,0.0
1a,2,None,292582,1779733225466,-8.490386,-0.88500917,-0.17467606,-5.743362,1.6262403,1.957619,11.465268,73.17248,190.50017,0.0
1a,3,None,3050576,1779733225466,13.4478655,-7.403096,6.2955165,-46.994225,12.3696995,102.30922,-75.095924,-57.42131,329.99167,0.0
1a,1,None,3250598,1779733225483,-0.64,9.15,2.28,1.4375,-4.125,6.125,-0.19116211,-0.15142822,-0.60162354,-0.76068115
1a,1,None,3250623,1779733225483,-0.29,9.54,1.8,1.75,0.625,9.25,-0.19036865,-0.1519165,-0.6017456,-0.7606201
1a,1,None,3250638,1779733225507,-0.09,9.15,2.19,2.625,1.75,10.0,-0.18890381,-0.15283203,-0.6018677,-0.7607422
1a,4,None,29253565,1779733225510,5.727719,1.8519442,-3.9744782,-32.75496,-38.568886,9.463728,-103.873985,-57.224037,208.47128,0.0
1a,2,None,292641,1779733225529,-9.20584,-1.1242914,-0.19860429,-5.393362,-3.9037595,1.7476189,11.393904,73.22979,190.43375,0.0
1a,3,None,3050636,1779733225530,13.974287,-8.496616,2.859423,-38.594223,9.2897,58.06922,-75.012695,-57.399536,329.91132,0.0
1a,1,None,3250667,1779733225544,-0.03,9.4,2.17,1.9375,-0.6875,10.8125,-0.1862793,-0.15301514,-0.6021118,-0.7611084
1a,1,None,3250686,1779733225568,-0.15,9.35,2.14,2.75,-2.625,11.25,-0.1843872,-0.1552124,-0.6021118,-0.76116943
1a,1,None,3250704,1779733225569,-0.16,9.14,2.25,2.9375,-3.5,11.6875,-0.18365479,-0.15576172,-0.6021118,-0.76123047
1a,4,None,29253625,1779733225569,4.8854456,0.7081752,-4.479364,-22.324959,-15.748888,1.833728,-104.010544,-57.25555,208.58237,0.0
1a,2,None,292702,1779733225574,-9.217804,-1.050114,0.019142581,-5.743362,-2.2937598,-1.052381,11.316343,73.287384,190.36124,0.0
1a,3,None,3050696,1779733225578,14.10589,-6.314362,3.8931224,-23.054224,5.3696995,44.34922,-74.93291,-57.42131,329.8385,0.0
1a,1,None,3250730,1779733225604,-0.06,9.38,2.14,3.5,-2.5,13.75,-0.1817627,-0.1583252,-0.6021118,-0.76116943
1a,1,None,3250749,1779733225626,0.18,9.56,1.93,3.375,-1.6875,13.4375,-0.18005371,-0.15997314,-0.6021118,-0.76123047
1a,1,None,3250769,1779733225631,0.26,9.26,1.81,3.1875,1.5625,11.6875,-0.17822266,-0.16113281,-0.6022949,-0.7612915
1a,4,None,29253685,1779733225631,5.921538,-0.13888416,-1.536192,45.36504,-23.448889,-14.546272,-104.07401,-57.325375,208.65405,0.0
1a,2,None,292761,1779733225634,-9.289589,-0.9926862,-0.15314065,-5.743362,-0.75375986,-4.762381,11.244305,73.34618,190.29367,0.0
1a,3,None,3050755,1779733225650,13.4478655,-11.037795,1.1724831,-0.2342236,7.5396996,34.829224,-75.0193,-57.355953,329.91153,0.0
1a,1,None,3250788,1779733225672,0.43,9.28,2.04,2.625,0.75,9.3125,-0.17675781,-0.16210938,-0.60235596,-0.76135254
1a,1,None,3250808,1779733225689,0.32,9.13,2.11,1.625,-1.8125,5.5625,-0.17596436,-0.16296387,-0.602417,-0.7612915
1a,4,None,29253745,1779733225689,2.2294126,-0.3207383,-3.3882368,74.13504,79.59111,-17.836271,-104.13837,-57.343586,208.71628,0.0
1a,2,None,292821,1779733225694,-9.100555,-1.3324671,0.6053842,-3.363362,-1.2437598,-3.922381,11.1176815,73.40134,190.17305,0.0
1a,3,None,3050816,1779733225708,15.340588,-12.071494,5.8049874,-182.93423,-9.400301,101.39922,-75.03273,-57.280148,329.8757,0.0
1a,1,None,3250838,1779733225722,0.24,9.26,1.93,1.5625,-1.5625,2.0625,-0.17572021,-0.16351318,-0.602478,-0.76116943
1a,1,None,3250855,1779733225722,0.47,9.36,1.95,1.0,-0.9375,-1.3125,-0.17401123,-0.1619873,-0.6031494,-0.76135254
1a,1,None,3250875,1779733225746,0.11,9.3,1.96,0.5625,-1.125,-3.125,-0.17462158,-0.16168213,-0.6033325,-0.76116943
1a,1,None,3250891,1779733225750,0.09,9.26,2.18,0.3125,-0.75,-4.75,-0.1749878,-0.16149902,-0.6033325,-0.7611084
1a,4,None,29253805,1779733225750,5.366403,-4.09422,-0.77048886,179.69504,115.011116,-11.816272,-103.964096,-57.289402,208.60196,0.0
1a,2,None,292881,1779733225753,-9.12927,-1.3109317,-0.10289137,-2.873362,-3.4837599,0.06761885,11.028393,73.458115,190.08838,0.0
1a,3,None,3050875,1779733225767,13.615362,-14.859131,3.8093736,-153.18423,-34.4603,149.13922,-75.1288,-57.16067,329.92502,0.0
1a,1,None,3250915,1779733225780,0.1,9.22,2.07,0.625,1.0625,-5.6875,-0.17578125,-0.16033936,-0.60375977,-0.7608032
1a,1,None,3250936,1779733225807,0.07,9.32,2.02,0.5625,1.375,-5.3125,-0.1763916,-0.15942383,-0.604126,-0.7606201
1a,1,None,3250953,1779733225809,-0.05,9.21,1.99,0.4375,0.5625,-4.8125,-0.17565918,-0.15814209,-0.6044922,-0.7607422
1a,4,None,29253865,1779733225812,-0.09880393,-1.9574288,-8.075776,157.92503,76.931114,44.53373,-103.98983,-57.250046,208.65388,0.0
1a,2,None,292941,1779733225825,-9.095771,-1.2726465,-0.31106696,-4.553362,0.08624017,1.887619,10.95023,73.51648,190.01514,0.0
1a,3,None,3050936,1779733225825,4.5058866,-14.847167,6.3170514,-175.79422,70.9597,191.69922,-75.15675,-57.03007,329.89322,0.0
1a,1,None,3250979,1779733225840,-0.15,9.29,2.04,0.0625,-0.625,-3.125,-0.17669678,-0.15716553,-0.60479736,-0.760437
1a,1,None,3250996,1779733225867,-0.27,9.2,2.0,0.3125,1.25,0.875,-0.17663574,-0.15631104,-0.60510254,-0.760437
1a,4,None,29253925,1779733225869,4.7969112,-1.0840491,-4.900501,199.43504,75.181114,-34.07627,-104.00842,-57.27852,208.71584,0.0
1a,2,None,293001,1779733225882,-9.122091,-1.1290771,-0.11006984,-6.093362,-1.4537598,2.377619,10.873193,73.574165,189.9435,0.0
1a,3,None,3050996,1779733225883,4.469994,-3.9526465,4.922036,-326.15424,137.6697,140.94922,-75.13924,-56.949043,329.76456,0.0
1a,1,None,3251026,1779733225907,-0.16,9.23,1.98,0.125,1.625,3.5625,-0.17651367,-0.15594482,-0.60528564,-0.760376
1a,1,None,3251036,1779733225907,0.0,9.1,2.0,-0.1875,1.125,4.3125,-0.17596436,-0.15594482,-0.60528564,-0.76049805
1a,1,None,3251055,1779733225925,0.18,9.28,2.03,-0.375,0.3125,4.625,-0.17541504,-0.15637207,-0.6052246,-0.7606201
1a,2,None,293061,1779733225939,-9.198662,-1.4712508,0.09332008,-3.9933622,-3.4837599,4.687619,10.770322,73.62945,189.84654,0.0
1a,3,None,3051056,1779733225940,13.9599285,-3.4956172,0.04785645,4.0357766,157.89969,88.519226,-75.0918,-56.97756,329.70123,0.0
1a,1,None,3251080,1779733225960,0.32,9.51,2.0,0.0,-3.3125,3.375,-0.17523193,-0.15704346,-0.6050415,-0.7606201
1a,4,None,29253985,1779733225960,6.1273203,-6.9273214,-9.020941,12.81504,63.141113,-23.226273,-104.07998,-57.25777,208.76929,0.0
1a,1,None,3251099,1779733225960,0.17,9.67,1.84,0.0,-5.125,3.0625,-0.17523193,-0.15795898,-0.60479736,-0.7606201
1a,1,None,3251121,1779733225985,0.22,9.16,2.04,0.6875,-6.1875,2.125,-0.17553711,-0.15899658,-0.60461426,-0.76049805
1a,2,None,293122,1779733225992,-9.287196,-1.0477211,0.06699903,0.48663807,-1.3837599,3.987619,10.696479,73.68662,189.77588,0.0
1a,3,None,3051116,1779733226008,16.21636,-1.1171515,0.42113677,115.12577,101.0597,-64.99078,-74.98785,-57.065987,329.62598,0.0
1a,1,None,3251139,1779733226024,0.18,9.23,2.12,1.125,-7.75,1.9375,-0.17602539,-0.16021729,-0.6044922,-0.7602539
1a,4,None,29254045,1779733226024,10.460722,-5.197311,-6.759724,-195.50496,36.12111,20.173729,-104.239,-57.25435,208.83813,0.0
1a,1,None,3251164,1779733226045,0.23,9.23,2.0,1.1875,-8.375,0.4375,-0.17712402,-0.1618042,-0.6043701,-0.7597656
1a,1,None,3251184,1779733226046,0.55,9.18,1.95,0.6875,-7.9375,-3.1875,-0.17773438,-0.16217041,-0.6043091,-0.7595215
1a,2,None,293181,1779733226052,-9.1101265,-1.2295758,-0.3062813,4.0566382,-5.5137596,0.767619,10.619236,73.743095,189.70035,0.0
1a,1,None,3251199,1779733226075,0.33,9.21,2.01,-0.3125,-8.9375,-7.75,-0.17730713,-0.1609497,-0.6046753,-0.7595825
1a,1,None,3251220,1779733226076,0.46,9.11,2.04,-1.3125,-8.6875,-13.0,-0.17974854,-0.16088867,-0.60461426,-0.7591553
1a,4,None,29254135,1779733226079,16.583956,-2.713561,-7.1306114,-147.55496,91.91111,87.723724,-104.3316,-57.278828,208.8518,0.0
1a,1,None,3251239,1779733226105,-0.18,9.46,1.76,-1.9375,-5.75,-14.75,-0.18231201,-0.16027832,-0.6044922,-0.758728
1a,2,None,293242,1779733226112,-9.423587,-1.2893963,0.2321038,1.9566379,-3.69376,3.777619,10.522704,73.79836,189.6073,0.0
1a,3,None,3051176,1779733226125,24.751558,2.383548,-4.0941195,239.37578,52.4797,-102.30078,-74.89036,-57.169533,329.59958,0.0
1a,1,None,3251262,1779733226148,-0.26,9.05,1.91,-1.8125,-1.6875,-14.6875,-0.18334961,-0.15808105,-0.6048584,-0.758667
1a,4,None,29254195,1779733226148,8.563213,3.3522449,-5.943772,-26.45496,67.971115,-0.19627213,-104.40759,-57.33619,208.8956,0.0
1a,1,None,3251288,1779733226167,-0.15,9.37,2.24,-1.6875,-2.5625,-12.3125,-0.1852417,-0.15698242,-0.60491943,-0.7583618
1a,1,None,3251300,1779733226167,-0.4,9.41,2.18,-0.75,-3.9375,-9.1875,-0.18688965,-0.15631104,-0.60491943,-0.75805664
1a,2,None,293301,1779733226182,-8.88281,-0.82518864,0.035892338,0.97663784,10.79624,-4.482381,10.454015,73.86051,189.54077,0.0
1a,1,None,3251324,1779733226198,-0.6,9.31,2.04,0.9375,-2.125,-5.0625,-0.18792725,-0.1560669,-0.60510254,-0.75775146
1a,1,None,3251342,1779733226198,-0.31,9.18,2.14,2.3125,-0.3125,-0.3125,-0.18811035,-0.1560669,-0.6053467,-0.7575073
1a,4,None,29254255,1779733226199,9.912766,-3.752046,-3.6107695,-102.40496,299.9511,-59.62627,-104.39764,-57.41614,208.80519,0.0
1a,1,None,3251365,1779733226225,-0.26,9.13,2.22,3.25,-2.3125,5.625,-0.18786621,-0.15667725,-0.6057129,-0.7571411
1a,2,None,293361,1779733226240,-9.349409,-1.306146,0.06699903,-3.923362,1.9762402,-3.782381,10.35168,73.91858,189.44344,0.0
1a,3,None,3051339,1779733226240,14.314067,-6.989139,-0.4019942,38.475777,-16.3303,46.309223,-75.01874,-57.1249,329.73627,0.0
1a,1,None,3251387,1779733226259,-0.28,9.41,2.08,3.25,-3.5625,8.625,-0.18737793,-0.15765381,-0.605896,-0.756958
1a,1,None,3251404,1779733226259,-0.01,9.15,2.02,3.3125,-3.5625,8.8125,-0.18707275,-0.15826416,-0.605896,-0.75683594
1a,4,None,29254315,1779733226259,2.8276184,-2.041178,2.8354948,-78.18496,32.48111,-47.866272,-104.33627,-57.440914,208.7268,0.0
1a,1,None,3251430,1779733226285,-0.08,9.21,1.91,1.1875,-3.625,10.0625,-0.18591309,-0.16033936,-0.60583496,-0.75671387
1a,2,None,293421,1779733226298,-9.12927,-1.4473225,0.18424734,-3.923362,0.8562402,-6.6523814,10.228725,73.97542,189.32597,0.0
1a,3,None,3051461,1779733226298,14.605991,-9.458531,2.6081767,38.545776,-30.1903,73.189224,-75.079575,-56.983517,329.82147,0.0
1a,1,None,3251448,1779733226317,0.06,9.26,1.86,0.875,-3.4375,8.9375,-0.18554688,-0.16101074,-0.6057739,-0.7567749
1a,4,None,29254375,1779733226320,-9.904591,-1.7205396,6.0658054,88.27504,-53.68889,-4.536272,-104.303825,-57.423492,208.73544,0.0
1a,1,None,3251471,1779733226347,0.46,9.88,1.6,0.4375,-3.0,7.125,-0.18493652,-0.16290283,-0.6054077,-0.7567749
1a,1,None,3251488,1779733226349,0.14,9.53,1.67,-1.3125,-6.875,4.875,-0.18499756,-0.16412354,-0.60491943,-0.756897
1a,2,None,293481,1779733226353,-9.416409,-1.5813206,0.15074782,-7.4233623,-1.1737598,-1.6823812,10.1058035,74.03101,189.21013,0.0
1a,3,None,3051481,1779733226366,13.1104765,-7.974982,3.6346974,71.865776,-45.7303,71.64922,-74.99117,-56.95972,329.7803,0.0
1a,1,None,3251518,1779733226388,-0.15,9.26,2.11,-1.4375,-7.125,4.25,-0.1852417,-0.16601562,-0.604187,-0.75701904
1a,4,None,29254435,1779733226389,1.2028916,2.1223335,1.7108681,93.24504,19.741112,-2.086272,-104.23519,-57.459457,208.70154,0.0
1a,1,None,3251539,1779733226409,0.02,9.31,2.05,-0.3125,-2.9375,4.125,-0.18493652,-0.16674805,-0.6040039,-0.7570801
1a,2,None,293541,1779733226413,-9.019199,-1.4257872,-0.038285162,-0.42336226,4.2162404,-2.8723812,9.9980345,74.089485,189.10643,0.0
1a,1,None,3251557,1779733226437,0.1,9.24,2.07,1.6875,1.0625,3.625,-0.1842041,-0.16680908,-0.604187,-0.7570801
1a,1,None,3251579,1779733226440,0.15,9.27,1.88,1.375,1.25,3.1875,-0.18371582,-0.16693115,-0.60443115,-0.75701904
1a,4,None,29254495,1779733226440,5.3161535,-6.343473,1.6247265,56.70504,43.33111,-1.4562719,-104.107414,-57.434555,208.6027,0.0
1a,3,None,3051536,1779733226458,13.12244,-12.674484,0.09332008,5.8557763,-21.020302,84.24922,-75.10245,-56.88457,329.88327,0.0
1a,1,None,3251595,1779733226474,0.0,9.11,2.06,0.9375,1.375,2.8125,-0.18334961,-0.16687012,-0.6044922,-0.7570801
1a,2,None,293601,1779733226474,-9.291982,-1.6339628,-0.15314065,-6.723362,-2.8537598,0.20761895,9.884529,74.145134,188.9995,0.0
1a,1,None,3251616,1779733226497,0.26,9.36,1.89,0.6875,3.75,1.8125,-0.1828003,-0.16662598,-0.60461426,-0.7571411
1a,1,None,3251640,1779733226499,0.32,9.37,1.87,0.5,3.875,0.0,-0.18231201,-0.1661377,-0.60479736,-0.75720215
1a,4,None,29254555,1779733226499,6.849953,2.667897,-0.24885355,53.13504,-5.1788883,-9.366272,-104.110954,-57.500782,208.62271,0.0
1a,3,None,3051625,1779733226516,12.505094,-7.9510527,1.0983056,41.065777,-57.560303,36.15922,-75.22141,-56.886215,330.0073,0.0
1a,1,None,3251656,1779733226532,0.46,9.34,1.8,-0.4375,0.8125,-1.8125,-0.18182373,-0.16534424,-0.6050415,-0.7573242
1a,2,None,293662,1779733226533,-9.062271,-1.6889976,0.078963146,-6.8633623,0.8562402,1.047619,9.756292,74.20073,188.87852,0.0
1a,1,None,3251676,1779733226556,0.27,9.46,1.71,-1.5625,-2.375,-2.375,-0.18237305,-0.1652832,-0.60491943,-0.7572632
1a,1,None,3251699,1779733226558,-0.01,9.27,1.91,-1.4375,-0.6875,-2.3125,-0.18249512,-0.16485596,-0.60479736,-0.7574463
1a,4,None,29254615,1779733226559,4.5313077,-9.176576,-4.630112,124.535034,-25.338888,-14.826271,-104.13142,-57.433887,208.68188,0.0
1a,3,None,3051686,1779733226576,11.284753,-8.936895,1.3447663,152.99577,-64.1403,2.0692215,-75.27789,-56.83313,330.11124,0.0
1a,1,None,3251724,1779733226591,-0.08,9.23,2.15,-1.0625,0.5625,-0.3125,-0.18261719,-0.16479492,-0.6046753,-0.7575073
1a,2,None,293721,1779733226594,-9.102949,-1.4473225,-0.20817557,-3.853362,0.08624017,-0.14238095,9.654076,74.2579,188.78145,0.0
1a,1,None,3251737,1779733226616,-0.01,9.27,2.07,-1.0625,1.0625,1.8125,-0.18237305,-0.16473389,-0.6045532,-0.7576904
1a,1,None,3251764,1779733226618,0.02,9.39,1.98,-0.25,1.5,3.625,-0.18255615,-0.16503906,-0.60443115,-0.7576904
1a,4,None,29254675,1779733226619,10.262117,-0.581556,-3.739982,177.10504,-4.338888,-18.396273,-104.16227,-57.49776,208.76163,0.0
1a,1,None,3251782,1779733226647,0.09,9.39,1.99,0.1875,2.4375,4.1875,-0.1819458,-0.16497803,-0.6044922,-0.7578125
1a,2,None,293782,1779733226653,-9.162769,-1.7009618,-0.09332008,-3.363362,-1.6637598,2.517619,9.534913,74.31309,188.66808,0.0
1a,3,None,3051746,1779733226667,14.335602,-7.8290186,3.0388846,91.67577,-85.0003,14.179222,-75.20396,-56.87917,330.09253,0.0
1a,1,None,3251797,1779733226686,0.25,9.29,2.09,1.1875,2.8125,4.25,-0.18096924,-0.16485596,-0.6046753,-0.7579346
1a,1,None,3251817,1779733226686,0.32,9.28,1.95,2.3125,2.25,3.4375,-0.18017578,-0.16497803,-0.60491943,-0.75787354
1a,4,None,29254735,1779733226686,1.9303097,-5.8242307,-2.1966112,140.77504,18.691113,-60.18627,-104.13464,-57.44525,208.77914,0.0
1a,1,None,3251837,1779733226711,0.23,9.26,1.99,2.9375,-0.0625,2.4375,-0.1796875,-0.1652832,-0.6052246,-0.7576904
1a,2,None,293841,1779733226712,-9.067057,-1.4712508,-0.12921242,-4.833362,-0.89375985,1.607619,9.427873,74.36941,188.56676,0.0
1a,3,None,3051835,1779733226725,13.979072,-9.6356,8.492127,-172.43423,22.4497,13.75922,-75.16756,-56.856174,330.00812,0.0
1a,1,None,3251857,1779733226743,0.11,9.33,1.99,2.3125,-1.1875,2.375,-0.1796875,-0.16583252,-0.60546875,-0.75738525
1a,1,None,3251883,1779733226765,0.22,9.27,1.88,2.125,-1.9375,1.4375,-0.17962646,-0.16625977,-0.60565186,-0.7571411
1a,1,None,3251901,1779733226766,0.17,9.29,1.88,1.9375,-3.25,0.3125,-0.17944336,-0.16644287,-0.60595703,-0.756897
1a,2,None,293901,1779733226772,-9.220197,-1.3468239,-0.22013968,-3.153362,-2.6437597,-1.332381,9.329594,74.425865,188.47299,0.0
1a,3,None,3051896,1779733226783,17.130419,2.7663996,-0.51206404,44.705776,-28.0203,-16.83078,-75.161606,-56.93926,330.02057,0.0
1a,1,None,3251923,1779733226805,0.4,9.29,1.67,1.5,-2.125,-0.75,-0.17974854,-0.16674805,-0.6062622,-0.75653076
1a,4,None,29254795,1779733226805,1.6479566,-1.7013971,-4.948357,-18.40496,28.421112,1.203728,-104.250694,-57.42388,208.8663,0.0
1a,1,None,3251937,1779733226805,0.27,9.43,1.61,0.375,-0.5625,-1.5,-0.17999268,-0.16674805,-0.6066284,-0.7562256
1a,1,None,3251963,1779733226826,0.19,9.27,1.85,-1.0625,-0.1875,-1.4375,-0.18023682,-0.1665039,-0.6067505,-0.7560425
1a,2,None,293961,1779733226842,-9.18909,-1.9785292,0.3062813,-1.0533619,-0.9637598,0.907619,9.172232,74.47788,188.32182,0.0
1a,1,None,3251997,1779733226865,0.07,9.28,2.06,-0.75,-0.0625,-0.1875,-0.18054199,-0.16619873,-0.6066284,-0.75616455
1a,4,None,29254958,1779733226865,1.2818547,-9.245967,-3.7567315,-196.76495,0.0011119843,45.163727,-104.414825,-57.38833,208.96085,0.0
1a,1,None,3251980,1779733226865,-0.04,9.28,2.03,-1.0,-0.0625,-1.5625,-0.18048096,-0.16625977,-0.60668945,-0.7561035
1a,3,None,3051956,1779733226868,16.08954,-15.574586,4.7976093,277.59576,-4.6403008,-9.90078,-75.04906,-56.87423,330.00787,0.0
1a,1,None,3252022,1779733226885,0.21,9.19,2.0,-0.375,-0.3125,1.5625,-0.18041992,-0.1663208,-0.6065674,-0.7562256
1a,2,None,294021,1779733226900,-9.062271,-1.5884991,0.035892338,-4.203362,-0.8237598,4.267619,9.051701,74.53272,188.20746,0.0
1a,1,None,3252040,1779733226916,0.21,9.24,1.89,-0.5625,-1.8125,1.875,-0.18035889,-0.16662598,-0.60650635,-0.7562256
1a,1,None,3252062,1779733226916,0.16,9.29,1.84,-0.6875,-2.9375,1.125,-0.18060303,-0.16705322,-0.6063843,-0.75616455
1a,4,None,29254978,1779733226918,0.18833478,-11.612469,-2.778067,-337.25497,7.9811115,67.77373,-104.51644,-57.29635,208.9426,0.0
1a,3,None,3052016,1779733226934,11.667604,-18.21626,4.297509,-122.384224,-9.1203,43.859222,-75.11015,-56.78896,330.02707,0.0
1a,1,None,3252082,1779733226950,0.31,9.41,1.77,-0.625,-2.375,-0.1875,-0.1809082,-0.1673584,-0.6062622,-0.7561035
1a,2,None,294082,1779733226952,-9.062271,-1.5980705,-0.148355,-5.1133623,-4.60376,3.427619,8.936084,74.587006,188.09798,0.0
1a,1,None,3252097,1779733226975,0.14,9.32,1.87,-0.4375,-1.9375,-1.3125,-0.18127441,-0.16748047,-0.60632324,-0.75598145
1a,1,None,3252117,1779733226976,0.1,9.37,1.71,-0.8125,-1.25,-2.125,-0.1817627,-0.16741943,-0.6063843,-0.75579834
1a,4,None,29255035,1779733226979,8.177969,3.6202412,0.37088752,-128.86496,-75.738884,35.503727,-104.6048,-57.338085,208.99124,0.0
1a,3,None,3052106,1779733226993,17.11367,-3.8210413,2.2875385,-0.09422362,-35.6503,42.109222,-75.10593,-56.85123,330.03217,0.0
1a,1,None,3252141,1779733227009,0.01,9.37,1.81,-1.3125,-0.125,-2.3125,-0.18218994,-0.16711426,-0.6064453,-0.7557373
1a,2,None,294141,1779733227012,-9.380516,-1.3492168,0.21056838,-4.203362,0.7862402,1.7476189,8.821898,74.64289,187.98947,0.0
1a,1,None,3252168,1779733227035,-0.11,9.4,1.9,-1.3125,2.625,-1.375,-0.18243408,-0.16638184,-0.6065674,-0.75567627
1a,1,None,3252177,1779733227036,-0.11,9.31,1.94,-0.75,5.6875,1.5625,-0.18188477,-0.16577148,-0.6066284,-0.75598145
1a,4,None,29255095,1779733227039,8.235397,-2.6872401,1.1006985,-134.11496,37.24111,34.523727,-104.56837,-57.374977,208.91272,0.0
1a,3,None,3052166,1779733227051,13.084156,-9.850955,4.1515474,-15.634224,-2.8203006,27.199223,-75.04777,-56.798782,329.98077,0.0
1a,1,None,3252201,1779733227072,0.13,9.47,1.87,-0.0625,5.125,4.25,-0.18096924,-0.16534424,-0.6067505,-0.75616455
1a,2,None,294202,1779733227072,-9.023985,-1.7607824,0.033499517,-8.403362,5.1262403,-1.542381,8.68041,74.69917,187.85577,0.0
1a,1,None,3252217,1779733227097,0.17,9.37,1.83,-0.75,2.0625,6.375,-0.1798706,-0.16558838,-0.6066284,-0.7564697
1a,1,None,3252242,1779733227098,0.18,9.32,1.89,-1.1875,0.0625,7.625,-0.17889404,-0.16625977,-0.6062622,-0.75683594
1a,4,None,29255155,1779733227100,8.728319,1.6724832,2.1966112,9.38504,-1.0488882,19.333727,-104.53727,-57.421463,208.88855,0.0
1a,3,None,3052226,1779733227118,15.587048,-5.8334045,3.78066,103.15577,-17.4503,36.929222,-74.95329,-56.84333,329.9369,0.0
1a,1,None,3252260,1779733227135,0.29,9.27,1.9,-1.0,0.75,6.875,-0.17797852,-0.16687012,-0.60595703,-0.7571411
1a,2,None,294261,1779733227135,-9.241732,-1.7727464,-0.033499517,-8.123362,0.15624017,1.957619,8.546537,74.75387,187.72955,0.0
1a,1,None,3252277,1779733227157,0.43,9.37,1.68,-1.1875,2.5625,5.375,-0.17700195,-0.16723633,-0.60583496,-0.7574463
1a,1,None,3252300,1779733227160,0.27,9.21,1.75,-2.1875,4.5625,3.3125,-0.17614746,-0.16699219,-0.6057739,-0.7576904
1a,4,None,29255215,1779733227160,13.911174,-4.345466,1.6989042,119.84504,61.601112,-47.23627,-104.41311,-57.49023,208.81018,0.0
1a,3,None,3052286,1779733227177,15.264018,-10.800904,4.8358946,45.475777,-6.8803005,31.819221,-74.86599,-56.79977,329.87994,0.0
1a,1,None,3252325,1779733227192,0.44,9.33,1.75,-3.125,5.0625,1.0625,-0.17541504,-0.1665039,-0.60565186,-0.75805664
1a,2,None,294322,1779733227193,-9.28241,-1.602856,0.031106694,-9.383362,0.2962402,4.127619,8.421876,74.80885,187.6128,0.0
1a,1,None,3252341,1779733227217,0.33,9.28,2.07,-3.6875,3.125,-0.1875,-0.17510986,-0.16601562,-0.6053467,-0.7585449
1a,4,None,29255275,1779733227219,12.305589,-1.148655,-2.7732813,60.27504,-51.44889,-48.636272,-104.48614,-57.57052,208.90114,0.0
1a,3,None,3052346,1779733227238,15.407586,-7.099208,1.9477576,-81.29423,-5.2003007,81.30922,-74.90679,-56.847633,329.89536,0.0
1a,1,None,3252368,1779733227248,0.31,9.33,1.89,-3.8125,1.75,-1.375,-0.17529297,-0.1652832,-0.6047363,-0.75909424
1a,1,None,3252386,1779733227248,0.35,9.43,1.86,-3.5625,-0.625,-2.0,-0.17565918,-0.16503906,-0.6043701,-0.7593384
1a,2,None,294381,1779733227262,-9.217804,-1.7177116,0.035892338,-7.843362,-1.8037597,3.917619,8.288146,74.862465,187.4867,0.0
1a,1,None,3252409,1779733227282,0.22,9.24,2.07,-3.3125,-1.875,-1.5625,-0.17626953,-0.16503906,-0.6039429,-0.7595825
1a,3,None,3052406,1779733227288,13.56272,-5.1347013,3.7471604,49.255775,-18.7803,26.219221,-74.82184,-56.888046,329.84338,0.0
1a,1,None,3252427,1779733227306,0.45,9.3,2.12,-1.9375,-3.6875,-3.9375,-0.17712402,-0.1651001,-0.6036377,-0.7595825
1a,1,None,3252451,1779733227310,0.46,9.3,2.03,-0.4375,-4.3125,-6.8125,-0.17834473,-0.16497803,-0.6036377,-0.7593384
1a,2,None,294441,1779733227313,-9.026379,-1.6818192,-0.31585258,-3.2233622,2.8162403,2.447619,8.170324,74.919235,187.37428,0.0
1a,1,None,3252467,1779733227336,0.28,9.28,2.17,0.5,-7.125,-10.125,-0.18017578,-0.16485596,-0.6036377,-0.75891113
1a,4,None,29255335,1779733227340,0.4611166,-1.4525434,1.1820544,37.24504,-75.94888,-50.80627,-104.44727,-57.563072,208.8955,0.0
1a,3,None,3052466,1779733227357,15.924437,-9.961023,5.771488,74.035774,-15.350301,35.949223,-74.71578,-56.866646,329.78085,0.0
1a,1,None,3252487,1779733227378,-0.21,9.1,2.25,0.75,-9.625,-11.4375,-0.18255615,-0.16491699,-0.60375977,-0.75823975
1a,1,None,3252507,1779733227378,-0.12,9.21,1.93,1.0,-4.5625,-11.5625,-0.18469238,-0.16455078,-0.6040039,-0.7576294
1a,2,None,294501,1779733227378,-9.11252,-1.4233943,-0.22971097,-4.973362,-0.123759866,2.377619,8.064052,74.97551,187.27354,0.0
1a,1,None,3252529,1779733227397,-0.04,9.43,1.64,0.5,0.125,-10.4375,-0.18615723,-0.16351318,-0.6043701,-0.75720215
1a,4,None,29255499,1779733227399,19.665913,8.685845,5.4915276,-228.61496,151.8311,8.063728,-104.43278,-57.60688,208.79428,0.0
1a,3,None,3052526,1779733227419,16.572891,-9.049358,5.051249,21.395777,-22.9803,84.80922,-74.63424,-56.853806,329.72733,0.0
1a,1,None,3252553,1779733227434,-0.31,9.41,1.73,-2.0625,-0.25,-6.875,-0.18719482,-0.16265869,-0.60443115,-0.7570801
1a,1,None,3252570,1779733227434,-0.3,9.27,1.85,-2.25,1.0,-5.5,-0.18798828,-0.16192627,-0.6043701,-0.7570801
1a,2,None,294561,1779733227435,-8.952201,-1.8517096,-0.3684947,-3.573362,-4.3937597,-0.842381,7.9302588,75.02934,187.14539,0.0
1a,1,None,3252593,1779733227457,-0.28,9.35,1.83,-3.0,4.5,-1.5625,-0.1885376,-0.16046143,-0.6047363,-0.756958
1a,1,None,3252613,1779733227487,-0.24,9.27,1.87,-3.4375,6.1875,1.6875,-0.18817139,-0.15924072,-0.6048584,-0.75720215
1a,4,None,29255518,1779733227490,19.261524,12.054941,0.27756742,-33.10496,27.161112,-8.526272,-104.44594,-57.671066,208.79109,0.0
1a,2,None,294622,1779733227494,-9.236947,-1.9019588,0.3948157,-5.5333624,0.4362402,2.027619,7.7612143,75.08032,186.98412,0.0
1a,3,None,3052585,1779733227498,13.835503,-4.512567,4.1706896,80.685776,-18.430302,56.109222,-74.54275,-56.883408,329.6805,0.0
1a,1,None,3252635,1779733227524,0.1,9.15,2.24,-3.6875,3.0625,5.4375,-0.18737793,-0.15881348,-0.6044922,-0.75775146
1a,1,None,3252650,1779733227525,0.11,9.26,2.23,-2.8125,-0.75,7.0625,-0.18658447,-0.15942383,-0.6039429,-0.7583008
1a,1,None,3252674,1779733227548,0.12,9.21,2.03,-2.4375,-3.8125,6.5,-0.18609619,-0.16033936,-0.60339355,-0.758667
1a,1,None,3252690,1779733227550,0.17,9.27,2.03,-2.0625,-5.1875,5.0625,-0.18597412,-0.16149902,-0.6027832,-0.75891113
1a,2,None,294681,1779733227553,-9.105342,-1.5310714,-0.44027936,-3.643362,2.53624,0.48761892,7.652603,75.13775,186.88045,0.0
1a,3,None,3052646,1779733227559,14.28296,-6.7546415,6.613762,27.695776,3.6896992,9.699223,-74.43744,-56.88968,329.60025,0.0
1a,1,None,3252718,1779733227582,0.25,9.39,1.95,-2.25,-4.9375,3.5,-0.18615723,-0.16296387,-0.6020508,-0.7591553
1a,4,None,29255575,1779733227582,3.734498,-5.0106707,-2.8091736,-13.99496,-42.138885,4.773728,-104.53578,-57.603718,208.87024,0.0
1a,1,None,3252736,1779733227607,0.09,9.4,1.99,-2.5,-2.75,1.4375,-0.1862793,-0.16351318,-0.60162354,-0.7593384
1a,1,None,3252754,1779733227610,0.13,9.38,2.04,-2.375,-1.25,1.1875,-0.18634033,-0.16363525,-0.6014404,-0.75946045
1a,2,None,294742,1779733227613,-8.968951,-1.9928862,-0.0741775,-3.0133622,5.68624,-2.032381,7.494606,75.19279,186.72862,0.0
1a,3,None,3052736,1779733227628,16.04647,-8.735898,2.78046,-42.234222,-0.51030064,67.02922,-74.421616,-56.93917,329.57816,0.0
1a,1,None,3252780,1779733227648,0.15,9.23,2.16,-1.5,-0.125,-0.6875,-0.1864624,-0.16345215,-0.6011963,-0.75964355
1a,4,None,29255665,1779733227648,8.950851,4.62044,0.24646074,314.51505,9.381111,7.013728,-104.43188,-57.662212,208.87318,0.0
1a,2,None,294801,1779733227673,-9.126877,-1.6937833,-0.47138605,-2.033362,1.6262403,-3.2923808,7.3710575,75.249535,186.60957,0.0
1a,1,None,3252794,1779733227673,0.15,9.24,2.15,-1.1875,-0.6875,-1.0625,-0.18658447,-0.16345215,-0.6010742,-0.7597046
1a,3,None,3052795,1779733227678,15.192233,-6.2545424,4.426722,-61.834225,-12.760301,35.31922,-74.3677,-56.969746,329.519,0.0
1a,1,None,3252817,1779733227698,0.19,9.24,2.08,-1.25,-0.75,-1.5625,-0.18707275,-0.16326904,-0.6008911,-0.7597656
1a,1,None,3252841,1779733227698,0.0,9.27,2.06,-1.0,-0.625,-1.875,-0.18743896,-0.1630249,-0.6008301,-0.7597656
1a,4,None,29255755,1779733227701,3.6722846,-2.6537406,-5.048856,179.06503,22.61111,-28.336273,-104.47888,-57.654835,208.96292,0.0
1a,1,None,3252857,1779733227727,0.11,9.33,2.08,-1.0,-0.6875,-1.4375,-0.18774414,-0.1628418,-0.60076904,-0.75982666
1a,2,None,294861,1779733227734,-9.000057,-1.8445312,-0.33499515,0.55663776,3.7262402,-3.922381,7.2308097,75.30575,186.47343,0.0
1a,3,None,3052856,1779733227745,15.02952,-7.537094,4.718646,41.135777,-10.800301,37.839222,-74.26761,-56.979824,329.45105,0.0
1a,1,None,3252886,1779733227766,-0.01,9.35,1.99,-1.1875,-1.0,-0.75,-0.18804932,-0.1628418,-0.600647,-0.75982666
1a,1,None,3252896,1779733227766,0.02,9.32,2.09,-0.875,-0.9375,-0.125,-0.18823242,-0.1628418,-0.60058594,-0.75982666
1a,4,None,29255815,1779733227766,7.529515,-8.111769,-5.771488,145.74504,17.501112,-28.266272,-104.50632,-57.61772,209.02722,0.0
1a,1,None,3252920,1779733227787,-0.06,9.28,2.13,-0.5625,-0.6875,1.1875,-0.18835449,-0.16290283,-0.6005249,-0.75982666
1a,2,None,294921,1779733227802,-9.134055,-2.1077416,-0.16271193,-4.273362,-0.1937598,-0.42238092,7.0701094,75.358536,186.31937,0.0
1a,3,None,3052916,1779733227803,15.256839,-8.661721,4.438686,15.515777,-13.180301,66.46922,-74.17983,-56.967503,329.38785,0.0
1a,1,None,3252940,1779733227821,-0.01,9.24,2.16,-0.375,0.0,2.0625,-0.18817139,-0.16296387,-0.6005249,-0.7598877
1a,1,None,3252957,1779733227821,0.07,9.34,2.04,-0.5,0.5625,2.5,-0.18792725,-0.16314697,-0.6005249,-0.7598877
1a,4,None,29255875,1779733227821,3.1219356,-10.341879,-1.9046868,-86.79496,24.151112,-0.336272,-104.50988,-57.548176,209.00029,0.0
1a,1,None,3252983,1779733227847,0.05,9.51,1.99,-0.4375,1.3125,3.0,-0.1875,-0.16320801,-0.6005249,-0.75994873
1a,2,None,294981,1779733227861,-9.050307,-1.9258871,-0.43070808,-5.813362,-0.053759813,1.887619,6.932661,75.41309,186.18849,0.0
1a,1,None,3252997,1779733227877,-0.08,9.22,2.16,-0.0625,3.5,3.4375,-0.18695068,-0.1630249,-0.600647,-0.7600708
1a,1,None,3253021,1779733227881,0.22,9.28,2.18,0.5,3.6875,3.25,-0.18615723,-0.1628418,-0.600647,-0.7602539
1a,4,None,29255935,1779733227881,2.9305096,-9.585748,6.8195443,-283.21497,39.34111,72.74372,-104.5048,-57.506046,208.90198,0.0
1a,1,None,3253041,1779733227907,0.18,9.21,2.13,0.875,2.375,2.25,-0.18548584,-0.16278076,-0.60076904,-0.760376
1a,2,None,295041,1779733227914,-9.107734,-1.9713507,-0.16271193,-8.543362,0.22624022,3.847619,6.781534,75.466225,186.04544,0.0
1a,3,None,3053080,1779733227928,15.127625,-5.9697957,3.0005996,23.355776,-15.070301,42.73922,-74.06212,-56.989662,329.29636,0.0
1a,1,None,3253057,1779733227946,0.27,9.37,2.04,0.9375,2.125,0.875,-0.18511963,-0.16265869,-0.60095215,-0.76031494
1a,4,None,29255995,1779733227946,8.481858,9.329515,1.8233309,-171.00496,87.221115,46.56373,-104.516014,-57.547985,208.84305,0.0
1a,1,None,3253089,1779733227968,0.1,9.36,1.95,0.625,2.875,0.0625,-0.18481445,-0.16235352,-0.6011963,-0.76031494
1a,1,None,3253098,1779733227968,0.16,9.24,2.1,0.75,4.1875,-0.8125,-0.18450928,-0.1618042,-0.6014404,-0.76031494
1a,2,None,295101,1779733227974,-9.179519,-1.8541025,-0.34456646,-8.613362,-4.1137595,4.127619,6.645392,75.5191,185.91687,0.0
1a,3,None,3053099,1779733227987,16.099113,-2.8615193,4.7306104,67.105774,-19.2003,22.649221,-73.9816,-57.03857,329.25317,0.0
1a,1,None,3253123,1779733228006,0.32,9.15,2.09,0.875,2.5,-1.9375,-0.1843872,-0.16119385,-0.6016846,-0.7602539
1a,1,None,3253142,1779733228028,0.14,9.28,1.99,0.375,0.0,-3.375,-0.18469238,-0.16088867,-0.6018677,-0.76013184
1a,1,None,3253164,1779733228029,0.1,9.27,1.98,0.4375,0.875,-3.5625,-0.18518066,-0.16040039,-0.6020508,-0.75994873
1a,2,None,295162,1779733228033,-9.043128,-1.8684593,-0.42113677,-8.333363,-0.1937598,3.987619,6.509934,75.573524,185.78885,0.0
1a,3,None,3053156,1779733228045,14.440887,-8.487045,3.0747771,-14.794224,-25.6403,32.16922,-73.90625,-57.056488,329.19196,0.0
1a,1,None,3253183,1779733228064,-0.11,9.23,2.08,0.125,2.25,-2.25,-0.18530273,-0.15985107,-0.60217285,-0.75994873
1a,1,None,3253197,1779733228064,-0.1,9.25,2.11,0.4375,1.5,-0.1875,-0.18518066,-0.1595459,-0.6022339,-0.75994873
1a,4,None,29256055,1779733228065,7.163413,-2.0172493,-1.4069797,-185.35497,5.4611115,50.97373,-104.62881,-57.60008,208.88026,0.0
1a,1,None,3253222,1779733228089,0.0,9.29,1.97,0.5,0.4375,1.375,-0.18518066,-0.15942383,-0.60235596,-0.75994873
1a,2,None,295221,1779733228092,-9.105342,-1.8158172,-0.24646074,-6.093362,-5.0937595,1.7476189,6.3664565,75.62567,185.65204,0.0
1a,3,None,3053216,1779733228103,15.275982,-8.518152,4.615755,-61.974224,-10.1703005,46.79922,-73.841064,-57.05123,329.1234,0.0
1a,1,None,3253237,1779733228122,0.03,9.35,1.98,0.6875,-1.125,2.5625,-0.18493652,-0.15966797,-0.602417,-0.75982666
1a,1,None,3253257,1779733228122,-0.09,9.33,2.08,0.4375,-1.6875,3.875,-0.18475342,-0.16015625,-0.60235596,-0.75982666
1a,4,None,29256218,1779733228122,10.278868,0.3707868,2.103291,-12.80496,-109.82889,-3.066272,-104.69122,-57.69146,208.92085,0.0
1a,1,None,3253283,1779733228146,0.05,9.3,2.15,0.75,-0.375,5.125,-0.18432617,-0.1605835,-0.60235596,-0.7598877
1a,2,None,295282,1779733228169,-9.232161,-1.7607824,-0.19381864,-5.743362,1.0662402,-0.77238107,6.222046,75.68002,185.51402,0.0
1a,3,None,3053276,1779733228169,14.739989,-7.01546,5.910272,-54.62422,-2.8903008,34.54922,-73.77,-57.053787,329.0501,0.0
1a,1,None,3253297,1779733228175,0.0,9.43,2.03,1.0,0.0,6.1875,-0.18365479,-0.16113281,-0.60235596,-0.75994873
1a,1,None,3253321,1779733228176,0.32,9.32,1.83,1.25,-0.8125,6.1875,-0.18286133,-0.1618042,-0.602417,-0.7598877
1a,1,None,3253341,1779733228205,0.1,9.37,1.95,0.5625,-2.5625,6.625,-0.18225098,-0.16271973,-0.6022949,-0.75994873
1a,4,None,29256237,1779733228208,10.154441,-1.0074785,1.2179468,73.505035,-33.66889,2.8137279,-104.65151,-57.744762,208.91492,0.0
1a,2,None,295341,1779733228219,-9.20584,-1.8541025,-0.23449661,-7.773362,-1.1037599,-1.7523808,6.0699625,75.7333,185.36911,0.0
1a,3,None,3053335,1779733228220,15.984257,-7.5945225,3.5892339,-2.0542235,-0.79030085,49.52922,-73.701416,-57.092087,328.99472,0.0
1a,1,None,3253377,1779733228241,0.32,9.27,2.16,0.75,-1.5625,7.3125,-0.18096924,-0.16467285,-0.6020508,-0.7600708
1a,1,None,3253359,1779733228241,0.1,9.31,2.01,0.5625,-2.6875,7.25,-0.18170166,-0.16375732,-0.60217285,-0.75994873
1a,1,None,3253400,1779733228265,0.32,9.29,2.12,0.75,-2.6875,6.9375,-0.18029785,-0.16577148,-0.6018677,-0.76013184
1a,4,None,29256295,1779733228268,8.1516485,-5.1685977,-4.658826,34.30504,3.9911118,2.743728,-104.74324,-57.728706,209.00174,0.0
1a,2,None,295401,1779733228278,-8.918701,-2.0694566,-0.4881358,-3.0133622,2.2562404,-2.4523811,5.913615,75.78778,185.2184,0.0
1a,3,None,3053396,1779733228288,15.04627,-9.04218,3.2638102,13.345777,-1.7003007,46.93922,-73.603714,-57.087467,328.91943,0.0
1a,1,None,3253417,1779733228308,0.35,9.33,1.92,0.625,-2.5625,6.3125,-0.17974854,-0.16680908,-0.6017456,-0.76013184
1a,1,None,3253437,1779733228308,0.33,9.26,1.86,0.4375,-0.5625,4.75,-0.17913818,-0.16741943,-0.60162354,-0.7601929
1a,1,None,3253461,1779733228327,0.37,9.3,1.84,0.125,0.375,2.875,-0.1786499,-0.16778564,-0.60162354,-0.7602539
1a,4,None,29256385,1779733228328,9.965408,-4.4005013,-0.7369894,41.02504,-8.188889,-32.39627,-104.7063,-57.803387,208.98563,0.0
1a,2,None,295461,1779733228333,-9.102949,-2.2704537,-0.23688945,-4.833362,0.8562402,0.48761892,5.7382264,75.83939,185.05003,0.0
1a,3,None,3053456,1779733228345,16.19004,-11.226827,3.0436704,-47.62422,-11.2903,93.13922,-73.67496,-56.984158,328.97226,0.0
1a,1,None,3253488,1779733228361,0.49,9.21,2.01,-0.1875,-1.375,0.625,-0.17858887,-0.16802979,-0.60162354,-0.7601929
1a,1,None,3253497,1779733228361,0.3,9.33,2.02,-0.1875,-0.8125,-1.6875,-0.17889404,-0.16815186,-0.60162354,-0.76013184
1a,1,None,3253524,1779733228385,0.34,9.19,1.91,-0.375,2.0625,-3.25,-0.17907715,-0.16766357,-0.60180664,-0.76000977
1a,4,None,29256445,1779733228389,6.1440706,-3.1227334,-0.059820566,62.655037,-5.038888,-30.856274,-104.616356,-57.85168,208.93037,0.0
1a,2,None,295521,1779733228392,-8.983308,-1.9522082,-0.5192425,-4.9033623,-1.5237597,3.777619,5.5961485,75.89277,184.91423,0.0
1a,3,None,3053516,1779733228405,15.345374,-14.167605,2.1655045,-36.004223,-62.670303,175.59923,-73.810616,-56.86565,329.09625,0.0
1a,1,None,3253542,1779733228424,0.22,9.2,1.95,-1.625,2.125,-4.125,-0.17938232,-0.16693115,-0.6018677,-0.7600708
1a,1,None,3253564,1779733228424,0.16,9.33,1.91,-2.25,2.875,-4.75,-0.1798706,-0.16601562,-0.6018677,-0.76013184
1a,1,None,3253577,1779733228446,0.19,9.26,2.06,-2.1875,3.375,-4.625,-0.18023682,-0.16497803,-0.6019287,-0.7602539
1a,4,None,29256505,1779733228449,5.55065,-8.769794,-3.2685957,-37.79496,22.191113,29.623728,-104.64016,-57.769882,208.93398,0.0
1a,2,None,295582,1779733228462,-9.052699,-1.954601,-0.33499515,-10.013362,-2.2237597,4.757619,5.4446697,75.94502,184.77107,0.0
1a,3,None,3053576,1779733228462,12.954944,-23.310581,8.712267,-87.314224,-11.570301,321.47922,-73.87856,-56.694225,329.1468,0.0
1a,1,None,3253597,1779733228479,0.07,9.35,2.0,-2.5,4.875,-3.4375,-0.18035889,-0.1638794,-0.6019287,-0.76049805
1a,1,None,3253621,1779733228479,0.14,9.42,1.94,-2.375,5.0,-2.0,-0.18029785,-0.1628418,-0.6019287,-0.7607422
1a,1,None,3253642,1779733228508,0.19,9.33,2.07,-2.5,2.1875,-0.625,-0.18023682,-0.16223145,-0.6017456,-0.7609863
1a,4,None,29256565,1779733228509,8.285646,1.7083751,-3.1680973,1.8250399,12.041112,15.063728,-104.71056,-57.828133,208.99121,0.0
1a,2,None,295641,1779733228513,-9.289589,-1.9426368,-0.16271193,-9.383362,-3.2037597,3.497619,5.285514,75.99615,184.6201,0.0
1a,3,None,3053636,1779733228518,13.215761,-13.715363,12.260822,-441.02423,103.509705,325.7492,-73.956154,-56.542343,329.08112,0.0
1a,1,None,3253661,1779733228545,0.1,9.36,2.1,-2.125,-0.25,0.75,-0.18029785,-0.16210938,-0.60150146,-0.76116943
1a,1,None,3253677,1779733228545,0.26,9.19,2.18,-1.375,-2.75,1.8125,-0.18035889,-0.16253662,-0.6012573,-0.7612915
1a,1,None,3253697,1779733228566,0.19,9.24,2.12,-1.25,-4.375,2.4375,-0.18054199,-0.16320801,-0.6008911,-0.7614136
1a,4,None,29256625,1779733228569,8.900602,-1.584149,-3.1657043,30.945038,2.0311117,-9.506271,-104.79507,-57.883957,209.07198,0.0
1a,2,None,295702,1779733228573,-9.102949,-1.9211016,-0.27517462,-5.183362,1.9762402,2.237619,5.130371,76.049484,184.47151,0.0
1a,3,None,3053696,1779733228590,7.90848,3.7570283,6.2907305,-347.78424,120.0297,178.60922,-73.97081,-56.503986,328.9793,0.0
1a,1,None,3253725,1779733228603,0.24,9.29,1.97,-1.5625,-4.8125,2.375,-0.1807251,-0.1640625,-0.6005249,-0.7614746
1a,1,None,3253744,1779733228627,0.25,9.32,2.01,-1.8125,-4.25,1.5625,-0.18096924,-0.16473389,-0.6001587,-0.76153564
1a,1,None,3253768,1779733228628,0.48,9.35,2.01,-2.0625,-3.375,-0.8125,-0.18157959,-0.16534424,-0.5996704,-0.7616577
1a,4,None,29256685,1779733228628,7.9195447,-3.646762,-2.8043883,76.935036,-12.8088875,-17.346272,-104.88645,-57.908688,209.17525,0.0
1a,2,None,295761,1779733228633,-9.100555,-2.0239928,-0.36610186,-5.8833623,-1.3137599,4.337619,4.974424,76.10158,184.3225,0.0
1a,3,None,3053756,1779733228648,16.55375,-3.8688974,-0.10289137,-87.244225,157.47969,82.00922,-73.95854,-56.533375,328.91888,0.0
1a,1,None,3253793,1779733228666,0.57,9.24,2.15,-2.3125,-4.9375,-3.375,-0.18237305,-0.16564941,-0.5993042,-0.7616577
1a,1,None,3253812,1779733228685,0.46,9.27,2.09,-2.5,-6.875,-6.375,-0.18377686,-0.16595459,-0.598938,-0.76153564
1a,4,None,29256745,1779733228689,10.360224,-9.092826,-2.321038,44.59504,-23.028887,3.933728,-104.87729,-57.829956,209.18462,0.0
1a,3,None,3053816,1779733228707,17.429522,-7.4222393,-2.7996025,-187.83423,94.4097,74.58922,-74.06942,-56.540485,328.9432,0.0
1a,1,None,3253840,1779733228722,0.42,9.22,2.05,-2.125,-7.5,-10.25,-0.18572998,-0.16595459,-0.59869385,-0.7612915
1a,1,None,3253856,1779733228722,0.15,9.2,1.96,-3.0,-6.8125,-12.1875,-0.18920898,-0.16558838,-0.5983887,-0.7607422
1a,2,None,295822,1779733228723,-9.052699,-1.8780308,-0.4019942,-0.2833619,-2.5037599,4.407619,4.8296113,76.15395,184.18236,0.0
1a,1,None,3253880,1779733228745,-0.21,9.25,2.03,-3.125,-5.3125,-11.875,-0.19122314,-0.16497803,-0.59814453,-0.7605591
1a,4,None,29256805,1779733228749,6.4838514,2.677468,-9.265009,371.70505,54.88111,252.36372,-104.813866,-57.77616,209.21887,0.0
1a,3,None,3053875,1779733228765,11.969101,-13.456938,-6.130411,76.90577,-18.430302,8.57922,-74.16511,-56.521355,329.0493,0.0
1a,1,None,3253896,1779733228779,-0.12,9.23,2.23,-2.875,-3.125,-10.3125,-0.19293213,-0.1642456,-0.5979614,-0.760437
1a,1,None,3253916,1779733228779,-0.01,9.31,2.2,-2.6875,-3.6875,-7.5625,-0.19445801,-0.16369629,-0.5977783,-0.76031494
1a,2,None,295881,1779733228782,-9.179519,-1.6746408,-0.3828516,1.9566379,0.01624024,0.48761892,4.6933794,76.20805,184.04944,0.0
1a,1,None,3253940,1779733228805,-0.19,9.36,2.09,-2.4375,-3.1875,-6.625,-0.19519043,-0.16345215,-0.5977173,-0.7601929
1a,4,None,29256865,1779733228808,10.489436,-4.0822554,-4.476971,56.77504,22.61111,12.683728,-104.89079,-57.79695,209.29605,0.0
1a,3,None,3053936,1779733228824,7.23849,-10.6358,-4.2544384,-5.4842234,15.449699,39.93922,-74.274765,-56.47544,329.13837,0.0
1a,1,None,3253957,1779733228837,-0.21,9.24,2.15,-2.1875,-2.8125,-2.8125,-0.19677734,-0.16278076,-0.5975952,-0.76000977
1a,1,None,3253976,1779733228837,-0.35,9.24,2.23,-2.25,-2.625,-0.875,-0.19744873,-0.16253662,-0.59747314,-0.76000977
1a,2,None,295971,1779733228842,-9.217804,-2.0838134,-0.44506502,0.97663784,0.22624022,-0.77238107,4.5308533,76.26074,183.89119,0.0
1a,1,None,3253992,1779733228865,-0.24,9.23,2.15,-2.0625,-1.0,2.375,-0.1975708,-0.16247559,-0.5973511,-0.7600708
1a,4,None,29256925,1779733228869,6.701598,-7.0924263,-3.306881,-119.41496,-39.26889,-7.5462723,-105.00961,-57.73276,209.3687,0.0
1a,3,None,3053996,1779733228881,11.739389,-4.5843515,-4.5822554,-105.86423,-3.6603007,26.219221,-74.41059,-56.501892,329.22287,0.0
1a,1,None,3254015,1779733228900,-0.16,9.27,2.03,-2.5,1.125,4.9375,-0.19696045,-0.16253662,-0.59698486,-0.76049805
1a,1,None,3254037,1779733228900,0.23,9.34,2.07,-3.375,-0.625,5.125,-0.19641113,-0.1630249,-0.59643555,-0.7609863
1a,2,None,296032,1779733228902,-8.906737,-2.047921,-0.26081768,-3.153362,2.32624,-0.14238095,4.3561215,76.31288,183.7225,0.0
1a,1,None,3254053,1779733228925,0.07,9.39,2.09,-3.25,-1.125,4.875,-0.19616699,-0.16326904,-0.5961304,-0.76123047
1a,4,None,29256985,1779733228928,12.042378,-4.0272207,-2.675176,-107.79496,110.39111,-52.41627,-105.06791,-57.824142,209.36887,0.0
1a,3,None,3054056,1779733228947,9.243675,-5.6611214,-4.9052863,7.7457767,21.3997,12.149223,-74.50533,-56.511333,329.3008,0.0
1a,1,None,3254076,1779733228962,0.29,9.21,2.21,-2.8125,-0.5,1.75,-0.19580078,-0.16363525,-0.595459,-0.7617798
1a,1,None,3254097,1779733228962,0.35,9.21,2.26,-3.0625,-2.4375,-0.75,-0.19604492,-0.16381836,-0.5949707,-0.7620239
1a,2,None,296091,1779733228962,-9.277625,-2.088599,-0.2847459,-9.103362,-1.3137599,4.127619,4.1871424,76.363716,183.56172,0.0
1a,1,None,3254118,1779733228985,0.06,9.27,2.25,-2.9375,-2.875,-1.6875,-0.19665527,-0.1638794,-0.5946045,-0.76220703
1a,4,None,29257045,1779733228988,6.029215,-2.3570302,-5.501099,-50.04496,52.01111,-23.506271,-105.181694,-57.83776,209.4422,0.0
1a,3,None,3054116,1779733229005,10.820545,-8.7406845,-10.042677,18.665777,-42.2303,0.5292206,-74.63577,-56.52129,329.42288,0.0
1a,1,None,3254136,1779733229021,0.28,9.2,2.31,-1.9375,-1.4375,-4.25,-0.1973877,-0.16357422,-0.59436035,-0.76226807
1a,1,None,3254160,1779733229021,0.0,9.21,2.31,-1.1875,-1.9375,-5.0625,-0.19824219,-0.16326904,-0.5942383,-0.76220703
1a,2,None,296151,1779733229022,-8.918701,-1.7177116,-0.56470615,-2.3133621,6.24624,-0.21238112,4.047324,76.42004,183.42664,0.0
1a,1,None,3254180,1779733229047,0.0,9.27,2.28,-0.625,-1.875,-4.75,-0.19909668,-0.16296387,-0.5942383,-0.7620239
1a,4,None,29257105,1779733229051,6.3785667,-2.7231321,-0.6221339,10.92504,29.821112,12.053728,-105.145775,-57.90596,209.40909,0.0
1a,3,None,3054176,1779733229066,10.526228,-5.1753793,-6.8195443,70.605774,-8.350301,18.239222,-74.72356,-56.53896,329.51917,0.0
1a,1,None,3254197,1779733229082,-0.18,9.24,2.22,-0.125,0.6875,-4.5,-0.1998291,-0.16241455,-0.5944214,-0.7618408
1a,1,None,3254223,1779733229082,-0.09,9.31,2.13,-0.1875,3.5625,-3.75,-0.20013428,-0.16156006,-0.59472656,-0.76171875
1a,2,None,296211,1779733229084,-9.081413,-1.8899947,-0.715454,-6.6533623,-0.8237598,-2.242381,3.8979242,76.4739,183.28346,0.0
1a,1,None,3254242,1779733229106,-0.15,9.36,2.22,-0.625,3.6875,-2.75,-0.20019531,-0.16064453,-0.5949707,-0.7616577
1a,4,None,29257165,1779733229109,10.199904,-2.620241,-0.6173482,-1.60496,4.621112,-19.026272,-105.1429,-57.982468,209.40627,0.0
1a,3,None,3054236,1779733229124,10.990436,-9.09243,-5.517849,21.745777,1.5896993,23.699223,-74.82911,-56.530457,329.6144,0.0
1a,1,None,3254261,1779733229142,-0.32,9.4,2.22,-0.75,3.3125,-0.4375,-0.20019531,-0.15985107,-0.59521484,-0.7616577
1a,2,None,296271,1779733229143,-9.059877,-2.22499,-0.39720857,-8.473362,1.4862401,-3.572381,3.7092888,76.52533,183.10263,0.0
1a,1,None,3254282,1779733229168,-0.19,9.28,2.23,0.0625,3.5625,2.0625,-0.1998291,-0.15930176,-0.59539795,-0.76171875
1a,1,None,3254303,1779733229168,0.08,9.32,2.27,0.3125,2.9375,3.125,-0.19915771,-0.15917969,-0.59552,-0.7618408
1a,4,None,29257225,1779733229170,8.453144,-5.9414787,1.2705889,63.98504,15.191112,59.51373,-105.00838,-57.96192,209.30557,0.0
1a,3,None,3054296,1779733229179,12.837695,-12.660129,-0.96430755,169.23578,24.5497,30.279222,-74.86084,-56.480587,329.68713,0.0
1a,1,None,3254325,1779733229202,0.37,9.37,2.22,0.375,1.0,2.0625,-0.19866943,-0.15917969,-0.595459,-0.7619629
1a,2,None,296332,1779733229203,-8.980915,-2.3518095,-0.20338993,-7.143362,1.7662401,-1.9623809,3.5036204,76.57452,182.90488,0.0
1a,1,None,3254345,1779733229227,-0.11,9.05,2.15,-0.375,-0.4375,0.5625,-0.19854736,-0.15924072,-0.595459,-0.7620239
1a,1,None,3254365,1779733229229,-0.07,9.17,2.18,-0.625,2.875,-0.125,-0.19824219,-0.15863037,-0.59552,-0.76220703
1a,4,None,29257285,1779733229229,6.6441703,-3.4744787,-5.905486,50.75504,-122.21888,39.21373,-105.1678,-57.929573,209.47566,0.0
1a,3,None,3054356,1779733229247,12.495521,-9.537495,-6.178268,66.825775,-33.2703,16.279222,-74.9661,-56.48215,329.80133,0.0
1a,2,None,296391,1779733229266,-8.918701,-2.3900948,-0.6149554,-5.813362,1.5562402,0.97761893,3.3192747,76.62587,182.7276,0.0
1a,1,None,3254389,1779733229266,-0.01,9.19,2.2,-1.0,4.3125,-1.1875,-0.19799805,-0.15795898,-0.59552,-0.7623291
1a,1,None,3254406,1779733229287,-0.21,9.31,2.21,-1.125,4.0625,-1.0,-0.1977539,-0.15716553,-0.5956421,-0.7625122
1a,1,None,3254426,1779733229290,-0.12,9.32,2.26,-0.0625,5.375,0.625,-0.19720459,-0.1564331,-0.59588623,-0.7626343
1a,4,None,29257345,1779733229290,7.7041903,-3.9482577,-4.7545385,64.26504,-24.848886,2.533728,-105.27136,-57.923145,209.58673,0.0
1a,3,None,3054416,1779733229307,10.157734,-11.8322115,-7.288538,-39.78422,-31.3803,35.73922,-75.114845,-56.45824,329.9214,0.0
1a,1,None,3254442,1779733229323,-0.02,9.19,2.34,0.0625,4.4375,1.5625,-0.19689941,-0.15625,-0.59594727,-0.7626953
1a,2,None,296452,1779733229323,-9.033557,-2.4068444,-0.50488555,-12.813362,-1.7337598,2.7976189,3.1286867,76.67526,182.54674,0.0
1a,1,None,3254467,1779733229348,-0.02,9.29,2.2,0.5,1.5625,3.0,-0.19610596,-0.15612793,-0.5960083,-0.7628174
1a,1,None,3254489,1779733229350,-0.14,9.38,2.07,0.5625,1.9375,3.375,-0.19543457,-0.15612793,-0.5961304,-0.76293945
1a,3,None,3054476,1779733229362,11.961922,-7.8912325,-3.1202407,-26.834223,-9.610301,31.679222,-75.23673,-56.458797,330.01852,0.0
1a,1,None,3254507,1779733229382,-0.08,9.31,2.11,0.375,2.6875,4.8125,-0.19458008,-0.15618896,-0.5961914,-0.7630615
1a,4,None,29257405,1779733229382,10.207084,-5.4605217,-3.2039895,40.605038,-19.948889,-0.82627225,-105.37574,-57.92989,209.6908,0.0
1a,2,None,296511,1779733229383,-9.119699,-2.3039532,-0.39720857,-8.613362,-4.7437596,3.497619,2.9406393,76.723335,182.36691,0.0
1a,1,None,3254538,1779733229406,0.14,9.24,2.28,0.6875,1.875,5.25,-0.19372559,-0.1564331,-0.5961914,-0.7632446
1a,3,None,3054536,1779733229429,12.194026,-7.7931266,-4.4913282,119.88577,-5.7603006,19.919222,-75.30497,-56.465412,330.1123,0.0
1a,1,None,3254556,1779733229435,0.23,9.31,2.13,0.625,-1.5625,5.6875,-0.19256592,-0.15734863,-0.5961914,-0.7633667
1a,1,None,3254575,1779733229436,-0.12,9.29,2.14,0.125,-3.0625,6.25,-0.1921997,-0.1583252,-0.5960083,-0.76342773
1a,4,None,29257495,1779733229448,16.636599,-11.705789,-14.306686,-6.29496,-52.078888,-165.39627,-105.53959,-57.959198,209.84525,0.0
1a,2,None,296572,1779733229449,-9.045521,-2.1627767,-0.49052867,-6.163362,0.01624024,4.197619,2.7658436,76.77428,182.1992,0.0
1a,1,None,3254593,1779733229468,0.14,9.29,2.14,-0.0625,-3.75,5.875,-0.19195557,-0.15887451,-0.59588623,-0.76342773
1a,3,None,3054596,1779733229479,11.643676,-19.762026,-0.808774,-22.354223,-30.820301,32.93922,-75.404465,-56.393143,330.19608,0.0
1a,1,None,3254617,1779733229497,0.2,9.24,2.31,0.6875,-3.3125,5.5625,-0.19134521,-0.16040039,-0.5956421,-0.76348877
1a,1,None,3254636,1779733229497,0.14,9.32,2.17,0.5625,-2.5,4.8125,-0.190979,-0.16113281,-0.59552,-0.76348877
1a,2,None,296631,1779733229502,-8.954594,-2.1747406,-0.68195444,-5.1133623,-2.7837596,4.687619,2.5980124,76.82494,182.0379,0.0
1a,1,None,3254652,1779733229525,0.12,9.34,2.1,0.375,-1.1875,3.4375,-0.19085693,-0.16137695,-0.595459,-0.7635498
1a,4,None,29257555,1779733229528,6.9145594,-4.4842496,-4.5224347,5.04504,53.34111,-29.03627,-105.62054,-57.955578,209.90727,0.0
1a,3,None,3054656,1779733229539,12.727625,-11.150257,-4.398008,-139.04422,-23.0503,90.689224,-75.58502,-56.3558,330.31473,0.0
1a,1,None,3254676,1779733229558,0.16,9.21,2.17,0.1875,-0.625,1.75,-0.19055176,-0.1618042,-0.59539795,-0.7635498
1a,1,None,3254692,1779733229558,0.17,9.28,2.16,-0.25,-1.0,1.5,-0.19055176,-0.16192627,-0.5953369,-0.7635498
1a,2,None,296691,1779733229562,-9.047914,-2.090992,-0.4642076,-3.7133622,-2.57376,3.427619,2.423464,76.87492,181.86946,0.0
1a,1,None,3254715,1779733229585,0.28,9.27,2.19,-0.25,-1.5625,1.0625,-0.19055176,-0.16247559,-0.5952759,-0.76348877
1a,4,None,29257615,1779733229596,9.046564,-6.0898337,-3.0053852,24.15504,23.45111,4.073728,-105.68861,-57.923824,209.96771,0.0
1a,3,None,3054716,1779733229597,12.8544445,-6.8359976,-3.979264,-117.83423,-29.070301,71.36922,-75.74832,-56.35794,330.42532,0.0
1a,1,None,3254739,1779733229615,0.32,9.35,2.18,0.1875,-2.75,0.6875,-0.1907959,-0.16290283,-0.59521484,-0.76342773
1a,1,None,3254753,1779733229616,0.25,9.29,2.13,0.5,-2.875,-0.125,-0.19091797,-0.16308594,-0.5951538,-0.7633667
1a,2,None,296751,1779733229631,-9.00245,-2.1125274,-0.5575277,-4.763362,-0.47375977,2.167619,2.2482064,76.92585,181.70055,0.0
1a,1,None,3254780,1779733229647,0.04,9.16,2.11,0.25,-1.5625,-1.1875,-0.19140625,-0.16314697,-0.59521484,-0.7631836
1a,1,None,3254793,1779733229647,0.13,9.18,2.01,-0.1875,0.9375,-2.4375,-0.19152832,-0.16296387,-0.5953369,-0.76312256
1a,4,None,29257705,1779733229648,7.519943,-7.1785684,-0.43310088,27.585041,14.701112,-2.9262722,-105.59498,-57.873764,209.8941,0.0
1a,3,None,3054776,1779733229665,12.770697,-5.7568345,-6.1208405,3.8257766,-26.2703,52.18922,-75.86673,-56.37013,330.53244,0.0
1a,1,None,3254820,1779733229681,0.24,9.26,2.14,-1.1875,0.125,-4.0,-0.19226074,-0.16229248,-0.59539795,-0.7630005
1a,2,None,296811,1779733229682,-9.040735,-2.1938832,-0.4235296,-4.343362,0.4362402,2.377619,2.0607169,76.97579,181.51956,0.0
1a,1,None,3254837,1779733229705,0.15,9.24,2.2,-1.6875,-1.375,-5.75,-0.19317627,-0.16186523,-0.5953369,-0.76293945
1a,4,None,29257765,1779733229708,3.071686,-4.917351,-3.2135608,-124.10496,-20.088888,96.82372,-105.701096,-57.777145,209.94597,0.0
1a,3,None,3054835,1779733229725,14.495921,-7.8026977,-7.482356,103.855774,-93.0503,28.389221,-75.985466,-56.38878,330.68027,0.0
1a,1,None,3254858,1779733229742,-0.04,9.24,2.21,-1.3125,-1.5625,-5.5625,-0.19415283,-0.16137695,-0.5952759,-0.7628174
1a,2,None,296872,1779733229743,-8.930665,-2.0814204,-0.64606214,-2.663362,-1.8737599,2.167619,1.8889582,77.026596,181.35327,0.0
1a,1,None,3254890,1779733229766,-0.21,9.32,2.24,-1.1875,-1.4375,-3.9375,-0.19494629,-0.16107178,-0.5951538,-0.76275635
1a,1,None,3254903,1779733229766,0.01,9.2,2.24,-0.9375,0.3125,-2.6875,-0.19537354,-0.1607666,-0.5951538,-0.76275635
1a,4,None,29257825,1779733229770,6.7997036,-5.056134,-4.7641096,50.82504,-2.868888,4.213728,-105.786156,-57.748676,210.03323,0.0
1a,3,None,3054896,1779733229783,9.392031,-9.743278,-3.8309093,76.20577,-100.7503,15.019222,-76.12092,-56.37326,330.8348,0.0
1a,1,None,3254923,1779733229802,-0.1,9.31,2.23,-1.125,0.5625,-1.1875,-0.19567871,-0.16046143,-0.5950928,-0.76275635
1a,1,None,3254938,1779733229803,0.01,9.33,2.14,-0.9375,2.375,-0.5,-0.19561768,-0.16003418,-0.5950928,-0.7628784
1a,2,None,296931,1779733229803,-9.174733,-2.239347,-0.27996024,-4.623362,-1.8737599,3.497619,1.6914324,77.074356,181.16261,0.0
1a,1,None,3254967,1779733229827,0.17,9.25,2.16,-0.8125,2.8125,-0.75,-0.19543457,-0.15960693,-0.5951538,-0.7630005
1a,4,None,29257885,1779733229829,7.5343003,-5.328916,-5.682954,2.5250401,-13.648888,41.10373,-105.891846,-57.710762,210.1237,0.0
1a,1,None,3254991,1779733229857,0.0,9.26,2.17,-1.5625,0.0,-0.6875,-0.19555664,-0.1593628,-0.5949707,-0.76312256
1a,2,None,296992,1779733229863,-9.033557,-2.0814204,-0.56470615,-5.8833623,-0.1937598,2.167619,1.5133467,77.12511,180.99118,0.0
1a,1,None,3255009,1779733229887,-0.05,9.22,2.26,-1.375,-0.3125,-0.4375,-0.19561768,-0.15924072,-0.59484863,-0.7632446
1a,1,None,3255029,1779733229888,-0.09,9.2,2.23,-1.0625,1.6875,1.0,-0.1954956,-0.15899658,-0.5947876,-0.7633667
1a,4,None,29257945,1779733229888,7.586942,-7.1642113,-4.850251,10.36504,-8.188889,32.703728,-105.969505,-57.65205,210.1922,0.0
1a,3,None,3054956,1779733229907,8.961322,-10.982759,-2.5962124,-108.59423,-44.1903,35.38922,-76.287315,-56.327736,330.9517,0.0
1a,1,None,3255045,1779733229924,-0.13,9.26,2.15,-1.3125,1.625,1.75,-0.19537354,-0.15887451,-0.5947876,-0.76342773
1a,2,None,297051,1779733229925,-8.9665575,-2.1723478,-0.5575277,-8.193362,-0.89375985,2.657619,1.3267257,77.17488,180.81223,0.0
1a,1,None,3255068,1779733229945,0.04,9.25,2.23,-1.4375,2.125,2.125,-0.19476318,-0.15863037,-0.5946655,-0.7637329
1a,1,None,3255088,1779733229946,-0.03,9.23,2.26,-1.625,0.9375,2.25,-0.19439697,-0.15863037,-0.5944824,-0.76397705
1a,4,None,29258005,1779733229949,7.117949,-5.5969124,-6.250053,14.14504,11.411112,29.833729,-106.058304,-57.61576,210.26778,0.0
1a,3,None,3055046,1779733229966,7.5495567,-6.6756783,-2.1152554,-68.62423,46.6697,52.11922,-76.400764,-56.293243,331.01978,0.0
1a,1,None,3255109,1779733229981,0.03,9.27,2.21,-1.75,1.1875,2.375,-0.19421387,-0.15863037,-0.59436035,-0.7640991
1a,2,None,297112,1779733229982,-9.119699,-2.1603837,-0.34935212,-8.683362,-0.75375986,3.497619,1.1316907,77.2235,180.62526,0.0
1a,1,None,3255127,1779733230005,0.04,9.32,2.16,-2.4375,2.0625,2.3125,-0.19360352,-0.1585083,-0.5940552,-0.76452637
1a,1,None,3255149,1779733230006,0.14,9.29,2.16,-2.75,1.75,1.9375,-0.1932373,-0.15838623,-0.59375,-0.7648926
1a,4,None,29258065,1779733230009,9.460523,-5.1327043,-7.1018977,-63.83496,-23.728888,28.363728,-106.20168,-57.595406,210.37283,0.0
1a,3,None,3055136,1779733230023,11.823138,-9.750456,-5.2833524,-47.764225,25.3197,58.55922,-76.52043,-56.268894,331.10336,0.0
1a,1,None,3255167,1779733230040,0.17,9.3,2.26,-2.625,1.75,0.625,-0.19299316,-0.15814209,-0.59350586,-0.76519775
1a,2,None,297171,1779733230042,-9.004843,-2.1508124,-0.62931234,-6.8633623,-0.26375985,3.5676188,0.94966716,77.27371,180.45035,0.0
1a,1,None,3255191,1779733230065,0.09,9.2,2.32,-2.3125,0.75,0.125,-0.19293213,-0.15789795,-0.5932007,-0.7654419
1a,1,None,3255206,1779733230066,0.09,9.21,2.27,-2.0625,0.5625,0.125,-0.19299316,-0.15783691,-0.5930176,-0.765625
1a,4,None,29258125,1779733230069,9.080064,-7.7169533,-4.5272202,-42.27496,-33.248886,9.043728,-106.310715,-57.542118,210.4579,0.0
1a,3,None,3055196,1779733230081,12.067206,-10.61905,-7.769495,32.595776,0.18969917,69.33922,-76.62899,-56.24294,331.20618,0.0
1a,1,None,3255229,1779733230098,0.08,9.21,2.27,-1.125,-0.1875,-0.1875,-0.1930542,-0.15783691,-0.5928345,-0.7657471
1a,2,None,297231,1779733230102,-8.985701,-2.0311713,-0.52163535,-8.053362,0.9962402,3.5676188,0.7682799,77.32432,180.27641,0.0
1a,1,None,3255252,1779733230125,0.03,9.26,2.29,-0.625,-0.375,-0.0625,-0.1930542,-0.15777588,-0.59277344,-0.7658081
1a,1,None,3255271,1779733230126,0.06,9.21,2.31,-0.1875,-1.0625,-0.125,-0.19317627,-0.15789795,-0.59277344,-0.7657471
1a,4,None,29258185,1779733230128,6.9983077,-7.7265244,-6.613762,-44.58496,21.561111,40.47373,-106.39646,-57.48471,210.51111,0.0
1a,3,None,3055256,1779733230140,11.007186,-3.2898345,-8.176275,-77.09423,-23.6803,47.149223,-76.77595,-56.261547,331.3126,0.0
1a,1,None,3255292,1779733230156,0.04,9.22,2.28,0.25,-2.0625,0.125,-0.19342041,-0.15814209,-0.5927124,-0.76568604
1a,2,None,297291,1779733230162,-9.1508045,-1.9737436,-0.5599205,-5.6733623,-1.4537598,1.887619,0.59166986,77.374695,180.10616,0.0
1a,1,None,3255318,1779733230185,0.0,9.29,2.21,0.75,-2.25,0.1875,-0.19360352,-0.15838623,-0.59277344,-0.7655029
1a,4,None,29258245,1779733230188,8.27129,-2.4623148,-2.213361,28.00504,73.431114,0.9937279,-106.42978,-57.550907,210.5342,0.0
1a,3,None,3055316,1779733230208,10.59562,-5.4098754,-6.206982,21.675777,27.699697,43.929222,-76.86412,-56.26581,331.38895,0.0
1a,1,None,3255337,1779733230223,-0.11,9.25,2.23,0.625,-1.25,0.5,-0.19390869,-0.1586914,-0.59295654,-0.7652588
1a,2,None,297351,1779733230224,-9.023985,-2.0957775,-0.5814559,-4.833362,-1.5237597,1.047619,0.40378067,77.42414,179.92451,0.0
1a,1,None,3255358,1779733230224,-0.01,9.2,2.24,0.75,-0.375,0.625,-0.19378662,-0.1586914,-0.59313965,-0.7651367
1a,1,None,3255380,1779733230245,0.04,9.26,2.2,0.75,0.1875,1.375,-0.19366455,-0.15881348,-0.5932007,-0.7650757
1a,4,None,29258305,1779733230249,8.512964,-7.771988,-2.5986054,-17.63496,72.31111,29.903728,-106.41036,-57.47508,210.49805,0.0
1a,3,None,3055375,1779733230267,10.447265,-8.527723,-8.444271,-35.304222,45.3397,59.609222,-76.97355,-56.24494,331.46378,0.0
1a,1,None,3255399,1779733230282,0.09,9.22,2.24,0.1875,0.5,1.1875,-0.19348145,-0.15893555,-0.5932007,-0.7651367
1a,2,None,297412,1779733230282,-9.03595,-2.1867046,-0.4833502,-6.513362,-2.36376,2.867619,0.20571153,77.47211,179.73361,0.0
1a,1,None,3255421,1779733230282,0.03,9.27,2.2,-0.4375,-0.5625,1.0,-0.19335938,-0.15905762,-0.5932007,-0.7651367
1a,1,None,3255440,1779733230305,0.01,9.23,2.2,-0.5,-0.375,0.875,-0.19329834,-0.15905762,-0.5932007,-0.7651367
1a,4,None,29258365,1779733230309,6.967201,-7.791131,-1.6031911,-64.60496,30.801111,-2.2262719,-106.38649,-57.405857,210.45349,0.0
1a,3,None,3055436,1779733230326,8.6263275,-7.089637,-6.84108,-29.004223,35.049698,57.019222,-77.08545,-56.225277,331.54425,0.0
1a,1,None,3255458,1779733230342,0.02,9.22,2.23,-1.375,0.125,1.125,-0.19317627,-0.15911865,-0.5930786,-0.7652588
1a,1,None,3255478,1779733230343,0.01,9.21,2.22,-1.8125,-0.1875,1.375,-0.19311523,-0.15917969,-0.5928955,-0.76538086
1a,2,None,297471,1779733230343,-9.019199,-2.1053488,-0.50009996,-5.603362,-2.8537598,3.357619,0.013456581,77.52024,179.54808,0.0
1a,1,None,3255494,1779733230367,0.0,9.25,2.3,-1.8125,0.0625,1.6875,-0.1930542,-0.15917969,-0.59277344,-0.7655029
1a,4,None,29258425,1779733230370,10.443974,-3.634798,-6.204589,-8.39496,63.421112,-3.206272,-106.47186,-57.42843,210.51169,0.0
1a,3,None,3055496,1779733230384,15.7712965,-6.333505,-10.152747,-67.994225,35.749702,43.789223,-77.19894,-56.23547,331.61398,0.0
1a,1,None,3255519,1779733230399,0.0,9.29,2.25,-1.6875,0.4375,2.4375,-0.19274902,-0.1593628,-0.59246826,-0.7658081
1a,1,None,3255537,1779733230399,-0.02,9.33,2.31,-1.1875,1.4375,2.9375,-0.19238281,-0.1593628,-0.59228516,-0.7659912
1a,2,None,297532,1779733230404,-9.050307,-2.0694566,-0.46181476,-6.443362,-0.89375985,2.447619,-0.18109882,77.56895,179.36049,0.0
1a,1,None,3255554,1779733230427,0.0,9.26,2.31,-0.6875,1.9375,3.0625,-0.19213867,-0.1593628,-0.59228516,-0.7661133
1a,4,None,29258485,1779733230430,9.838589,-6.893822,-4.26401,7.7750397,47.321114,9.253728,-106.53529,-57.399853,210.5584,0.0
1a,3,None,3055556,1779733230445,10.868402,-3.3424766,-6.1328044,-57.004223,18.9497,69.33922,-77.31413,-56.2461,331.69263,0.0
1a,1,None,3255581,1779733230464,0.31,9.19,2.3,0.3125,2.5625,2.3125,-0.19122314,-0.15924072,-0.5923462,-0.7662964
1a,1,None,3255596,1779733230464,0.28,9.32,2.11,-0.0625,1.125,2.25,-0.19085693,-0.15942383,-0.5923462,-0.7663574
1a,2,None,297591,1779733230464,-9.275232,-2.0311713,-0.35174492,-6.583362,-2.0137596,0.06761885,-0.38122663,77.61695,179.16727,0.0
1a,1,None,3255621,1779733230487,0.2,9.23,2.23,-0.9375,-1.75,1.25,-0.1907959,-0.15966797,-0.59228516,-0.7663574
1a,4,None,29258545,1779733230490,11.2024975,-7.2216387,-1.7754744,-28.414959,79.31111,-7.6862717,-106.407646,-57.377182,210.42863,0.0
1a,3,None,3055616,1779733230501,11.851852,-2.4403825,-7.412965,22.515776,44.8497,53.79922,-77.384865,-56.26492,331.7518,0.0
1a,1,None,3255637,1779733230519,-0.06,9.25,2.29,-0.75,-0.75,1.75,-0.19073486,-0.15991211,-0.59210205,-0.76641846
1a,1,None,3255656,1779733230519,0.03,9.17,2.24,-0.5,1.5,2.375,-0.19036865,-0.15991211,-0.59210205,-0.7665405
1a,2,None,297652,1779733230532,-8.945023,-2.4355583,-0.28953153,-7.563362,-1.6637598,1.817619,-0.61533237,77.66111,178.94131,0.0
1a,1,None,3255677,1779733230548,0.23,9.25,2.15,-0.75,1.0625,2.125,-0.1899414,-0.15991211,-0.59210205,-0.7666626
1a,4,None,29258605,1779733230550,11.023036,-7.006285,-2.6464617,-30.09496,29.401112,-0.05627203,-106.49076,-57.35062,210.48447,0.0
1a,3,None,3055676,1779733230566,14.512671,-3.5889373,-7.353144,92.02577,54.649696,42.809223,-77.42159,-56.287693,331.8005,0.0
1a,1,None,3255701,1779733230582,0.1,9.24,2.22,-1.25,-1.125,2.0625,-0.1897583,-0.16015625,-0.59198,-0.76678467
1a,1,None,3255718,1779733230583,0.11,9.31,2.29,-1.0,-0.125,2.6875,-0.1895752,-0.16040039,-0.5917969,-0.76690674
1a,2,None,297711,1779733230584,-9.067057,-1.9522082,-0.6556334,-10.223362,-3.1337595,4.827619,-0.79296863,77.71055,178.7716,0.0
1a,1,None,3255743,1779733230606,0.14,9.22,2.34,-0.25,0.5625,3.25,-0.18920898,-0.16064453,-0.59173584,-0.7669678
1a,4,None,29258666,1779733230610,10.388938,-5.3313093,-3.464807,13.16504,-7.628889,-27.776272,-106.60149,-57.374165,210.58444,0.0
1a,3,None,3055736,1779733230625,15.692332,-5.4266253,-5.7954164,269.96576,24.9697,6.4792213,-77.4054,-56.32269,331.86096,0.0
1a,1,None,3255761,1779733230651,0.23,9.24,2.3,0.4375,-0.1875,3.25,-0.18878174,-0.16101074,-0.5916748,-0.7670288
1a,2,None,297771,1779733230651,-9.138841,-2.0168142,-0.50488555,-1.7533622,1.4862401,2.657619,-0.98412603,77.76018,178.5856,0.0
1a,1,None,3255786,1779733230667,0.18,9.3,2.27,0.625,-1.6875,3.1875,-0.18835449,-0.1618042,-0.59161377,-0.7670288
1a,1,None,3255801,1779733230670,0.22,9.25,2.25,0.5,-1.75,3.3125,-0.18823242,-0.16210938,-0.59155273,-0.7670288
1a,4,None,29258725,1779733230671,7.8692956,-4.4100723,-1.134198,44.38504,82.67111,-59.55627,-106.5055,-57.461468,210.50491,0.0
1a,3,None,3055796,1779733230684,14.615562,-15.024237,-1.861616,188.13577,10.9697,34.61922,-77.43444,-56.27058,331.93915,0.0
1a,1,None,3255828,1779733230700,0.11,9.29,2.22,0.3125,-1.6875,2.9375,-0.18804932,-0.16259766,-0.5914917,-0.7670288
1a,2,None,297832,1779733230703,-8.978521,-2.0694566,-0.56470615,-6.023362,-2.15376,2.167619,-1.1816684,77.808304,178.39474,0.0
1a,1,None,3255866,1779733230728,0.26,9.23,2.23,0.375,0.0625,2.125,-0.18737793,-0.16320801,-0.59143066,-0.7671509
1a,1,None,3255844,1779733230728,0.26,9.22,2.28,0.375,-0.375,2.5,-0.18774414,-0.16290283,-0.59143066,-0.76708984
1a,4,None,29258785,1779733230728,9.281061,-6.6880393,-0.13878371,3.1550398,-3.4288883,-12.0962715,-106.409874,-57.451782,210.4265,0.0
1a,1,None,3255886,1779733230755,0.14,9.31,2.23,0.5,0.125,1.25,-0.18725586,-0.16333008,-0.59143066,-0.7671509
1a,2,None,297891,1779733230762,-9.059877,-1.9785292,-0.52642095,-5.953362,-1.6637598,-0.63238096,-1.3795422,77.85681,178.20331,0.0
1a,3,None,3055856,1779733230777,11.325431,-11.470895,-1.9812572,-61.134224,25.9497,61.49922,-77.549446,-56.21418,332.0147,0.0
1a,1,None,3255912,1779733230791,0.13,9.26,2.26,0.5625,0.6875,0.875,-0.18701172,-0.16326904,-0.59155273,-0.76708984
1a,1,None,3255931,1779733230792,0.18,9.42,2.19,0.8125,2.25,1.5625,-0.18658447,-0.16308594,-0.5917969,-0.76708984
1a,4,None,29258845,1779733230792,9.240383,-5.869694,-3.182454,-13.78496,7.9811115,-2.9962718,-106.50823,-57.433537,210.50406,0.0
1a,1,None,3255947,1779733230815,0.18,9.34,2.27,1.0625,2.3125,1.625,-0.18609619,-0.16296387,-0.59198,-0.7670288
1a,2,None,297952,1779733230822,-8.90913,-2.0933847,-0.60059845,-6.233362,1.2062402,-2.3123813,-1.58831,77.90575,178.00114,0.0
1a,1,None,3255974,1779733230845,0.27,9.21,2.29,1.0625,0.6875,1.625,-0.18572998,-0.16296387,-0.5921631,-0.7670288
1a,1,None,3255988,1779733230846,0.33,9.25,2.24,1.4375,-0.6875,1.25,-0.18554688,-0.16320801,-0.59228516,-0.76690674
1a,4,None,29258905,1779733230849,8.768996,-5.800302,-1.1820544,-8.11496,0.21111202,-7.196272,-106.41284,-57.409973,210.42165,0.0
1a,3,None,3055916,1779733230869,13.402401,-6.7163568,-3.1609187,-26.694223,21.749699,47.989223,-77.64624,-56.22551,332.0853,0.0
1a,1,None,3256008,1779733230884,0.21,9.16,2.2,1.625,-0.4375,0.3125,-0.18548584,-0.16333008,-0.59246826,-0.76672363
1a,2,None,298011,1779733230884,-8.961772,-2.0933847,-0.6843473,-6.303362,-0.61375976,-1.6823812,-1.7925279,77.954445,177.80347,0.0
1a,1,None,3256028,1779733230905,0.35,9.18,2.18,1.75,-0.5625,-0.5625,-0.1854248,-0.16339111,-0.5927124,-0.7665405
1a,4,None,29258965,1779733230909,9.199705,-6.853144,-2.6512475,-26.45496,12.111112,33.893726,-106.46483,-57.34122,210.45366,0.0
1a,3,None,3056006,1779733230926,12.950157,-9.259927,-1.7850457,-12.134224,9.2897,30.349222,-77.75155,-56.214386,332.16882,0.0
1a,1,None,3256052,1779733230941,0.33,9.24,2.15,1.375,-1.25,-1.75,-0.18566895,-0.16345215,-0.59295654,-0.7662964
1a,1,None,3256072,1779733230941,0.17,9.32,2.13,0.9375,-2.5625,-2.5625,-0.18615723,-0.16357422,-0.5932007,-0.7659912
1a,2,None,298072,1779733230942,-9.016808,-2.3087387,-0.5886344,-5.043362,-1.8037597,-0.21238112,-2.014578,78.000595,177.588,0.0
1a,1,None,3256092,1779733230965,0.26,9.33,2.21,1.1875,-2.4375,-3.4375,-0.18682861,-0.16363525,-0.5933838,-0.765625
1a,1,None,3256108,1779733230966,-0.09,9.25,2.18,1.6875,-1.1875,-2.5,-0.18737793,-0.16351318,-0.59368896,-0.7653198
1a,4,None,29259025,1779733230969,9.89841,-6.2549386,-3.4743786,-6.50496,-16.238888,13.733728,-106.57149,-57.316692,210.54373,0.0
1a,3,None,3056096,1779733230986,14.728025,-9.951452,-3.4552357,-9.334224,-12.480301,47.49922,-77.86891,-56.206493,332.26797,0.0
1a,1,None,3256138,1779733231001,-0.03,9.34,2.17,1.9375,0.625,-0.9375,-0.18756104,-0.16326904,-0.5940552,-0.76501465
1a,1,None,3256153,1779733231025,-0.02,9.38,2.2,1.6875,2.125,1.3125,-0.18725586,-0.16314697,-0.59436035,-0.7648926
1a,4,None,29259085,1779733231029,11.235998,-5.565806,-2.8761728,9.24504,20.371113,-40.37627,-106.66169,-57.37217,210.62088,0.0
1a,2,None,298131,1779733231032,-9.000057,-2.210633,-0.45224345,-3.5033622,-3.5537596,0.48761892,-2.2376013,78.045746,177.37106,0.0
1a,3,None,3056156,1779733231047,14.479171,-9.413068,-3.2925239,-12.764223,-18.0103,37.27922,-77.988014,-56.20567,332.3682,0.0
1a,1,None,3256176,1779733231056,0.11,9.32,2.18,2.0625,3.0625,2.9375,-0.1862793,-0.16296387,-0.5949707,-0.7647095
1a,1,None,3256192,1779733231056,0.21,9.22,2.18,2.3125,3.8125,4.125,-0.18579102,-0.16290283,-0.5951538,-0.7647095
1a,1,None,3256215,1779733231085,0.32,9.21,2.17,2.3125,3.0625,4.25,-0.18481445,-0.16296387,-0.595459,-0.76464844
1a,2,None,298191,1779733231100,-9.016808,-2.3494167,-0.485743,-4.9033623,-2.57376,1.887619,-2.4677103,78.09019,177.14774,0.0
1a,3,None,3056216,1779733231100,14.445672,-12.863518,-3.9361932,-163.26422,-7.8603005,82.00922,-78.16307,-56.162544,332.4711,0.0
1a,1,None,3256237,1779733231119,0.21,9.29,2.06,2.0625,0.375,4.25,-0.18371582,-0.16351318,-0.59576416,-0.7645874
1a,1,None,3256253,1779733231119,0.21,9.27,2.17,2.125,0.3125,4.1875,-0.18347168,-0.16375732,-0.59588623,-0.76452637
1a,1,None,3256280,1779733231145,0.26,9.32,2.16,2.6875,1.0,4.25,-0.18237305,-0.16436768,-0.5963135,-0.7642822
1a,4,None,29259145,1779733231149,10.9871435,-4.5081778,1.7922242,-19.80496,22.61111,-29.526272,-106.59031,-57.418846,210.55244,0.0
1a,2,None,298282,1779733231160,-9.004843,-2.4092371,-0.45702913,-6.233362,-5.1637597,2.097619,-2.705082,78.13298,176.91776,0.0
1a,1,None,3256297,1779733231181,0.38,9.27,2.12,3.0,1.1875,4.0,-0.18157959,-0.16467285,-0.5966797,-0.76416016
1a,1,None,3256318,1779733231182,0.34,9.29,1.9,2.5,0.5,3.5625,-0.18109131,-0.16516113,-0.59698486,-0.763855
1a,1,None,3256337,1779733231205,0.19,9.31,1.94,1.4375,0.625,2.5625,-0.1807251,-0.16552734,-0.59729004,-0.7636719
1a,4,None,29259309,1779733231208,10.427223,-5.2571316,-4.8478584,-22.18496,116.69112,19.823729,-106.65435,-57.48827,210.55383,0.0
1a,1,None,3256355,1779733231235,0.34,9.25,2.04,1.125,2.5625,2.1875,-0.18041992,-0.16546631,-0.59747314,-0.76361084
1a,1,None,3256381,1779733231236,0.53,9.15,2.1,0.6875,2.0,0.5,-0.1796875,-0.1651001,-0.5977783,-0.76361084
1a,2,None,298341,1779733231250,-9.086199,-2.2943816,-0.30149564,-8.613362,-3.4837599,6.367619,-2.938394,78.175835,176.69283,0.0
1a,3,None,3056276,1779733231250,14.548563,-10.343876,-1.7922242,-231.23422,2.9896994,114.55922,-78.35615,-56.12309,332.56842,0.0
1a,1,None,3256396,1779733231268,0.49,9.2,2.23,0.125,-0.5625,-0.0625,-0.1798706,-0.16534424,-0.5977173,-0.7635498
1a,4,None,29259328,1779733231269,10.1376915,-5.1327043,-3.0819554,16.59504,65.87111,26.753729,-106.71599,-57.507347,210.59743,0.0
1a,1,None,3256417,1779733231298,0.4,9.31,2.16,0.375,-5.6875,-1.8125,-0.18066406,-0.16589355,-0.5975952,-0.7633667
1a,1,None,3256437,1779733231299,0.18,9.32,2.04,1.0,-3.0,-2.25,-0.18133545,-0.1661377,-0.5977173,-0.7630615
1a,2,None,298402,1779733231303,-8.985701,-2.2010617,-0.42592245,-5.743362,-4.5337596,6.367619,-3.1597013,78.21978,176.47862,0.0
1a,3,None,3056469,1779733231308,15.158733,-1.6124659,-6.0562344,15.235777,-18.7803,31.259222,-78.55484,-56.205376,332.71585,0.0
1a,1,None,3256460,1779733231332,0.28,9.27,2.11,1.125,-1.5,-2.5625,-0.18182373,-0.16607666,-0.5979614,-0.76275635
1a,4,None,29259385,1779733231332,6.8116674,-3.3931227,-1.8496519,4.41504,50.12111,11.563728,-106.788795,-57.54095,210.65053,0.0
1a,1,None,3256478,1779733231358,0.28,9.29,2.11,1.1875,-1.8125,-3.0625,-0.18237305,-0.16601562,-0.59820557,-0.7624512
1a,1,None,3256501,1779733231358,0.14,9.29,2.1,1.25,-2.5625,-2.75,-0.18292236,-0.16601562,-0.5983887,-0.762146
1a,2,None,298492,1779733231362,-9.126877,-1.9569938,-0.5982057,-0.14336205,-4.8837595,0.907619,-3.3597698,78.26641,176.28288,0.0
1a,3,None,3056488,1779733231376,14.823737,0.8808554,-6.0299134,70.95577,-2.0503006,36.579224,-78.60072,-56.256454,332.77637,0.0
1a,1,None,3256518,1779733231393,0.05,9.26,1.98,1.3125,-3.0,-1.875,-0.18353271,-0.1661377,-0.5986328,-0.7617798
1a,4,None,29259445,1779733231393,7.519943,-2.0100715,1.3998013,23.805038,-7.208889,30.183727,-106.7225,-57.573864,210.60127,0.0
1a,1,None,3256540,1779733231416,0.06,9.32,1.83,1.125,-0.5,-0.4375,-0.18383789,-0.16607666,-0.59906006,-0.7614136
1a,2,None,298551,1779733231423,-9.038342,-2.3159173,-0.21535404,-4.763362,-2.2237597,0.48761892,-3.6143517,78.30786,176.03526,0.0
1a,3,None,3056546,1779733231436,15.498514,-4.225428,-4.8119664,317.14578,-7.440301,-8.500778,-78.57407,-56.308174,332.84732,0.0
1a,1,None,3256565,1779733231452,0.25,9.3,1.9,0.3125,2.0625,0.8125,-0.18353271,-0.16577148,-0.59942627,-0.76123047
1a,1,None,3256589,1779733231452,0.23,9.24,2.07,-0.375,1.375,1.0625,-0.18341064,-0.16577148,-0.5994873,-0.7612915
1a,4,None,29259505,1779733231452,10.463115,-5.209275,-0.63649076,85.26504,-68.598885,4.143728,-106.66501,-57.612934,210.58994,0.0
1a,1,None,3256605,1779733231475,0.19,9.26,2.15,-0.375,-0.3125,1.375,-0.18322754,-0.16583252,-0.59942627,-0.7612915
1a,2,None,298612,1779733231482,-9.047914,-2.289596,-0.1794617,-3.923362,-2.7837596,2.727619,-3.866901,78.34886,175.78949,0.0
1a,3,None,3056606,1779733231495,17.221346,-14.229819,1.3639089,170.98578,-28.510302,-7.940777,-78.59849,-56.252914,332.92236,0.0
1a,1,None,3256627,1779733231512,0.18,9.28,1.99,-0.1875,-0.6875,2.4375,-0.1829834,-0.16625977,-0.59942627,-0.7612915
1a,1,None,3256642,1779733231513,0.28,9.26,1.92,-0.4375,-0.625,2.5,-0.18286133,-0.16638184,-0.59942627,-0.7612915
1a,4,None,29259565,1779733231513,8.577571,-5.3935227,-1.0600204,114.38504,13.721111,-26.586271,-106.52099,-57.62054,210.501,0.0
1a,1,None,3256670,1779733231535,0.18,9.37,1.95,-1.25,-1.25,2.8125,-0.18255615,-0.16693115,-0.5991821,-0.7614136
1a,2,None,298671,1779733231542,-9.00245,-2.1484196,-0.4642076,-4.623362,0.22624022,2.377619,-4.095121,78.39435,175.56769,0.0
1a,3,None,3056666,1779733231553,13.852253,-9.834205,-3.9481573,41.135777,-56.5803,47.70922,-78.722275,-56.24368,333.0498,0.0
1a,1,None,3256689,1779733231570,0.24,9.32,2.05,-1.625,2.9375,2.75,-0.1821289,-0.16687012,-0.59906006,-0.7616577
1a,4,None,29259625,1779733231570,9.010672,-6.798109,-2.713461,28.215038,23.941113,6.1037283,-106.55256,-57.562206,210.53136,0.0
1a,1,None,3256704,1779733231570,0.42,9.31,2.01,-1.375,5.1875,2.375,-0.18170166,-0.16662598,-0.598999,-0.7618408
1a,1,None,3256726,1779733231595,0.54,9.28,2.01,-1.5,4.3125,0.1875,-0.1807251,-0.16564941,-0.598999,-0.7623291
1a,1,None,3256750,1779733231626,0.3,9.23,2.19,-2.0625,-0.25,-0.8125,-0.1807251,-0.16540527,-0.5988159,-0.7625122
1a,1,None,3256770,1779733231626,0.2,9.26,2.03,-1.5625,0.625,-0.5,-0.18084717,-0.16522217,-0.5986328,-0.7626343
1a,4,None,29259685,1779733231628,9.563414,-4.8240304,-2.053042,-24.284962,9.171112,7.713728,-106.6384,-57.615692,210.59462,0.0
1a,3,None,3056726,1779733231646,11.655641,-15.347268,-1.6414763,66.54578,-73.8003,80.95922,-78.82602,-56.16449,333.17245,0.0
1a,1,None,3256790,1779733231662,0.25,9.32,2.04,-1.25,2.1875,-0.25,-0.18066406,-0.16485596,-0.5985718,-0.7628174
1a,2,None,298731,1779733231662,-9.059877,-2.2872033,-0.25842485,-7.003362,-0.123759866,3.217619,-4.346253,78.4367,175.3243,0.0
1a,1,None,3256807,1779733231686,0.25,9.23,2.11,-1.5,-0.8125,0.75,-0.18066406,-0.16485596,-0.5983887,-0.76293945
1a,1,None,3256827,1779733231686,0.2,9.24,2.11,-1.1875,-2.25,1.0625,-0.18078613,-0.16516113,-0.59820557,-0.7630615
1a,4,None,29259745,1779733231689,10.266904,-4.7546387,-1.6989042,11.41504,10.711112,4.7037277,-106.65756,-57.688763,210.612,0.0
1a,3,None,3056786,1779733231704,11.356538,-4.390533,1.2083755,-293.81424,41.1397,76.19922,-78.897644,-56.210476,333.14178,0.0
1a,1,None,3256851,1779733231720,0.3,9.28,2.03,-0.375,-1.8125,1.375,-0.18084717,-0.16552734,-0.5980835,-0.7630005
1a,2,None,298895,1779733231723,-8.930665,-1.9378513,-0.5240282,-5.1133623,-3.2737598,4.617619,-4.792896,78.52579,174.89224,0.0
1a,1,None,3256867,1779733231745,0.29,9.3,1.99,-0.5625,-2.5625,1.3125,-0.1809082,-0.16595459,-0.59802246,-0.76293945
1a,1,None,3256887,1779733231746,0.33,9.3,2.02,-1.25,-3.6875,0.8125,-0.18115234,-0.16644287,-0.59783936,-0.76293945
1a,4,None,29259805,1779733231749,8.75464,-6.805288,-0.5168497,-55.22496,11.971111,11.843728,-106.57447,-57.652863,210.52272,0.0
1a,3,None,3056876,1779733231762,15.292732,-9.331712,-6.4247284,-84.93423,-14.510301,41.059223,-79.04284,-56.211056,333.24213,0.0
1a,1,None,3256917,1779733231781,0.33,9.29,2.06,-1.3125,-3.1875,0.25,-0.18151855,-0.16687012,-0.59765625,-0.76293945
1a,2,None,298914,1779733231782,-9.064663,-1.9833148,-0.4642076,-3.923362,-2.36376,4.057619,-5.0105433,78.571075,174.68056,0.0
1a,1,None,3256927,1779733231808,0.33,9.25,2.1,-1.25,-2.8125,-0.3125,-0.18188477,-0.1671753,-0.5974121,-0.76293945
1a,1,None,3256950,1779733231809,0.2,9.28,2.08,-1.25,-3.125,-0.3125,-0.18225098,-0.1675415,-0.597229,-0.76293945
1a,4,None,29259865,1779733231809,8.857531,-4.1037908,-0.9619147,-3.42496,6.0211115,0.9937279,-106.546364,-57.719265,210.49681,0.0
1a,3,None,3056936,1779733231819,14.383459,-4.7973127,-5.630312,-64.214226,-13.390301,49.45922,-79.168,-56.234005,333.3319,0.0
1a,1,None,3256973,1779733231842,0.18,9.39,2.17,-1.1875,-2.125,0.125,-0.18261719,-0.16772461,-0.5970459,-0.76293945
1a,2,None,298971,1779733231843,-9.059877,-1.8899947,-0.3086741,-5.183362,1.4862401,0.69761896,-5.2385073,78.616875,174.45891,0.0
1a,1,None,3256989,1779733231867,0.14,9.36,2.1,-1.25,-1.125,1.1875,-0.18273926,-0.16784668,-0.5969238,-0.76293945
1a,1,None,3257013,1779733231869,0.28,9.3,2.1,-1.25,0.1875,1.8125,-0.18267822,-0.16796875,-0.59680176,-0.7630615
1a,4,None,29259925,1779733231869,5.5793643,-3.2974095,0.8877372,-28.764961,131.39111,3.933728,-106.39697,-57.744728,210.33832,0.0
1a,1,None,3257037,1779733231898,0.38,9.26,2.09,-1.3125,0.75,1.25,-0.18237305,-0.16809082,-0.5965576,-0.76330566
1a,2,None,299032,1779733231904,-8.945023,-2.2704537,-0.3062813,-3.363362,-0.123759866,-0.842381,-5.5020022,78.65839,174.20168,0.0
1a,3,None,3056996,1779733231909,14.857238,-6.2760773,-5.812166,-84.93423,-1.0703006,21.669222,-79.296265,-56.257862,333.41492,0.0
1a,1,None,3257055,1779733231933,0.37,9.22,2.14,-1.375,0.6875,0.875,-0.18225098,-0.16802979,-0.5964966,-0.7633667
1a,4,None,29259985,1779733231933,10.606686,-6.74786,-0.4953143,-17.49496,-40.458885,9.113728,-106.32475,-57.740158,210.27882,0.0
1a,1,None,3257077,1779733231957,0.29,9.34,1.95,-1.375,0.625,0.3125,-0.18225098,-0.16790771,-0.5963745,-0.76348877
1a,1,None,3257097,1779733231961,0.31,9.38,1.9,-2.0,0.75,0.5,-0.18225098,-0.16772461,-0.5963135,-0.7635498
1a,3,None,3057056,1779733231978,12.663019,-9.807883,-6.326623,-45.87422,5.8596992,66.32922,-79.42398,-56.23467,333.50906,0.0
1a,1,None,3257121,1779733231993,0.26,9.35,2.16,-2.375,-0.625,0.75,-0.18231201,-0.16772461,-0.59606934,-0.7637329
1a,4,None,29260045,1779733231993,10.661719,-4.8264236,-1.942972,-48.15496,23.45111,-12.026272,-106.38217,-57.816895,210.30963,0.0
1a,2,None,299091,1779733231994,-9.074235,-2.2489183,-0.3828516,-8.543362,2.2562404,2.167619,-5.755835,78.701706,173.95583,0.0
1a,1,None,3257138,1779733232017,0.28,9.35,2.19,-2.0,-0.75,0.875,-0.18237305,-0.16784668,-0.59576416,-0.763916
1a,1,None,3257182,1779733232049,0.33,9.35,2.12,-0.5625,-1.8125,0.125,-0.18249512,-0.16815186,-0.5956421,-0.76397705
1a,1,None,3257163,1779733232049,0.38,9.21,2.28,-0.625,0.5,0.625,-0.18231201,-0.16790771,-0.5957031,-0.7640381
1a,4,None,29260105,1779733232050,11.070892,-4.5608206,-0.3684947,-10.70496,-4.2688885,-5.0962715,-106.342186,-57.87436,210.27364,0.0
1a,2,None,299152,1779733232055,-8.988093,-2.1125274,-0.46660042,-7.4233623,0.8562402,2.237619,-5.9965563,78.746056,173.72244,0.0
1a,3,None,3057146,1779733232058,13.962321,0.26111427,-6.963114,-44.824223,-21.3003,53.79922,-79.53352,-56.274952,333.59314,0.0
1a,1,None,3257204,1779733232084,0.35,9.25,2.11,0.0,-1.3125,-1.5,-0.18273926,-0.16833496,-0.5956421,-0.763855
1a,1,None,3257228,1779733232108,0.39,9.22,2.06,-0.0625,-0.3125,-2.25,-0.18328857,-0.16802979,-0.59576416,-0.7636719
1a,1,None,3257245,1779733232110,0.35,9.29,2.13,-0.4375,-1.5,-4.25,-0.184021,-0.16778564,-0.5958252,-0.76348877
1a,4,None,29260166,1779733232111,5.8545384,-3.6132624,0.86620176,64.05504,6.161112,23.253729,-106.2213,-57.877193,210.18791,0.0
1a,2,None,299242,1779733232122,-8.9665575,-2.1005633,-0.66041905,-4.343362,-0.1937598,2.3076189,-6.2257757,78.79156,173.49925,0.0
1a,3,None,3057206,1779733232133,15.235304,-0.8491554,-4.6971107,209.06577,-0.020300865,-4.3007774,-79.524086,-56.339375,333.6458,0.0
1a,1,None,3257268,1779733232142,0.22,9.3,2.18,-0.0625,-1.5,-4.625,-0.18481445,-0.1675415,-0.59594727,-0.76330566
1a,1,None,3257287,1779733232167,0.09,9.21,2.22,0.75,0.5625,-3.5,-0.18536377,-0.16705322,-0.5961304,-0.76312256
1a,1,None,3257307,1779733232168,0.16,9.25,2.01,0.8125,1.375,-1.75,-0.18554688,-0.16662598,-0.5964966,-0.76293945
1a,4,None,29260225,1779733232170,12.877474,-7.2048893,-0.30388847,109.83504,-10.288889,-13.986271,-106.10326,-57.905567,210.12297,0.0
1a,1,None,3257333,1779733232198,0.17,9.3,1.99,0.375,-1.125,0.125,-0.18566895,-0.16656494,-0.59661865,-0.7628174
1a,2,None,299301,1779733232212,-9.055093,-2.0000646,-0.26081768,-5.743362,-1.0337597,1.677619,-6.4732065,78.83408,173.2586,0.0
1a,3,None,3057296,1779733232212,14.716062,-2.2513494,-4.132405,162.16577,-2.1903007,40.149223,-79.54112,-56.38474,333.70895,0.0
1a,1,None,3257352,1779733232229,0.2,9.26,2.17,0.9375,-2.8125,0.9375,-0.18585205,-0.16699219,-0.59661865,-0.7626343
1a,1,None,3257367,1779733232231,0.2,9.28,2.27,1.9375,-1.75,0.75,-0.18597412,-0.1673584,-0.59680176,-0.76239014
1a,4,None,29260285,1779733232231,4.1053853,-3.3955157,-1.6630117,124.46504,29.681112,-4.4662714,-106.112526,-57.85643,210.16255,0.0
1a,1,None,3257391,1779733232257,0.45,9.22,2.06,3.1875,-0.6875,-0.125,-0.18597412,-0.1675415,-0.59710693,-0.76208496
1a,3,None,3057356,1779733232269,14.026929,-11.073687,-2.754139,187.15578,5.719699,1.2292213,-79.57692,-56.37314,333.79208,0.0
1a,1,None,3257413,1779733232289,0.37,9.27,2.12,3.1875,-2.0625,-1.0,-0.18609619,-0.16784668,-0.5975342,-0.7616577
1a,1,None,3257427,1779733232292,0.26,9.29,2.0,2.8125,-3.125,-1.6875,-0.1864624,-0.16815186,-0.5979004,-0.76123047
1a,4,None,29260345,1779733232293,9.405487,-7.4561357,-2.7684958,55.515038,-0.6988888,7.293728,-106.13458,-57.788742,210.19737,0.0
1a,2,None,299362,1779733232294,-9.227375,-2.2441325,-0.37088752,-8.263362,0.01624024,2.377619,-6.7316527,78.87598,173.00801,0.0
1a,1,None,3257450,1779733232318,0.16,9.23,2.07,2.4375,-1.0625,-1.75,-0.18682861,-0.16827393,-0.5982666,-0.7608032
1a,3,None,3057446,1779733232335,15.15634,-9.544673,-2.0745773,74.73577,-10.4503,23.489222,-79.65752,-56.37866,333.88373,0.0
1a,1,None,3257467,1779733232352,0.26,9.3,1.82,1.4375,1.0,-1.1875,-0.18688965,-0.16809082,-0.5987549,-0.760437
1a,4,None,29260405,1779733232353,10.747861,-6.530113,-0.9619147,-6.3649597,13.511112,10.723728,-106.031334,-57.797684,210.10516,0.0
1a,1,None,3257488,1779733232353,0.15,9.32,2.03,0.125,1.4375,-0.25,-0.18688965,-0.16778564,-0.59906006,-0.76031494
1a,2,None,299452,1779733232353,-8.961772,-2.1627767,-0.50488555,-4.273362,-3.8337598,2.237619,-6.9795446,78.91773,172.7664,0.0
1a,1,None,3257512,1779733232376,-0.01,9.35,2.16,-0.5,2.625,1.4375,-0.18670654,-0.16741943,-0.59924316,-0.76031494
1a,3,None,3057506,1779733232394,13.912072,-9.331712,-1.3998013,65.91577,-12.970301,28.109222,-79.74442,-56.37464,333.97867,0.0
1a,1,None,3257538,1779733232412,0.21,9.47,2.12,-0.1875,4.3125,3.3125,-0.18597412,-0.16711426,-0.59936523,-0.760437
1a,4,None,29260465,1779733232412,10.197512,-7.877272,-2.1511476,-66.56496,15.331112,-3.7662718,-106.036705,-57.725384,210.0875,0.0
1a,2,None,299541,1779733232413,-9.244125,-1.995279,-0.15314065,-7.983362,-0.61375976,1.607619,-7.2372465,78.959175,172.51634,0.0
1a,1,None,3257554,1779733232436,0.27,9.34,2.06,0.125,3.8125,4.125,-0.18511963,-0.16693115,-0.59936523,-0.76068115
1a,1,None,3257582,1779733232438,0.27,9.18,1.96,-0.8125,2.25,4.375,-0.18389893,-0.1671753,-0.59924316,-0.7609863
1a,3,None,3057566,1779733232453,15.182662,-8.781363,-1.5457635,106.79578,-15.560301,26.28922,-79.81116,-56.390743,334.06915,0.0
1a,1,None,3257596,1779733232470,0.19,9.39,1.96,-1.75,1.4375,4.6875,-0.18328857,-0.1673584,-0.59906006,-0.7612915
1a,4,None,29260525,1779733232470,9.637591,-5.302595,-3.0819554,-159.24496,-2.6588879,-12.0962715,-106.20236,-57.733597,210.18167,0.0
1a,2,None,299601,1779733232474,-8.992879,-2.0838134,-0.4737789,-7.0733624,-1.2437598,-0.9823811,-7.491144,79.00177,172.26949,0.0
1a,1,None,3257622,1779733232497,0.22,9.29,1.92,-2.25,3.0625,4.75,-0.18249512,-0.16741943,-0.5988159,-0.7616577
1a,1,None,3257637,1779733232498,0.22,9.33,2.14,-2.375,4.1875,5.9375,-0.18151855,-0.16729736,-0.5985718,-0.76208496
1a,3,None,3057626,1779733232510,18.015764,-9.736098,-3.5916266,140.60577,-63.7203,77.52922,-79.89739,-56.393253,334.19656,0.0
1a,1,None,3257661,1779733232528,0.13,9.37,2.12,-1.9375,4.5625,6.8125,-0.18017578,-0.16723633,-0.5983887,-0.76257324
1a,4,None,29260585,1779733232530,10.743075,-6.39133,-1.4668003,-116.05496,-47.80889,5.263728,-106.17794,-57.752537,210.13504,0.0
1a,2,None,299662,1779733232533,-8.997664,-2.1938832,-0.5599205,-8.053362,2.11624,-2.172381,-7.753612,79.04494,172.01442,0.0
1a,1,None,3257678,1779733232557,0.19,9.4,1.99,-0.9375,7.0625,11.25,-0.17834473,-0.16711426,-0.5983887,-0.7630005
1a,1,None,3257701,1779733232558,0.22,9.43,2.04,-0.625,6.5,13.0625,-0.17608643,-0.16741943,-0.5982666,-0.7635498
1a,3,None,3057686,1779733232569,16.69014,-8.845968,-1.1270194,255.54578,-140.7203,144.79922,-79.97824,-56.389587,334.36984,0.0
1a,1,None,3257722,1779733232587,0.52,9.33,2.06,-0.75,4.5,13.25,-0.17388916,-0.16809082,-0.5979614,-0.76416016
1a,4,None,29260645,1779733232590,20.187546,-10.973585,1.1485548,-262.07495,-212.09889,0.7837279,-106.29637,-57.755035,210.19571,0.0
1a,2,None,299721,1779733232593,-9.019199,-2.347024,-0.3804588,-7.773362,-1.2437598,-0.63238096,-8.036761,79.08386,171.73903,0.0
1a,1,None,3257741,1779733232618,0.5,9.2,2.2,-0.1875,3.0625,11.5,-0.17193604,-0.16888428,-0.5977173,-0.76464844
1a,1,None,3257758,1779733232618,0.42,9.15,2.0,0.875,4.125,9.6875,-0.17022705,-0.16949463,-0.5975342,-0.76501465
1a,3,None,3057746,1779733232636,14.629919,-7.9869456,-2.5579274,-13.604223,-192.5903,123.799225,-80.188225,-56.38418,334.58154,0.0
1a,1,None,3257785,1779733232653,0.67,9.31,2.08,0.5,0.1875,7.1875,-0.16912842,-0.17028809,-0.5973511,-0.76519775
1a,2,None,299782,1779733232654,-8.889988,-2.4283798,-0.4977071,-7.0733624,-1.5237597,2.587619,-8.316082,79.12277,171.46736,0.0
1a,1,None,3257801,1779733232676,0.59,9.2,2.24,0.6875,-1.6875,4.8125,-0.1685791,-0.17102051,-0.597229,-0.7653198
1a,3,None,3057806,1779733232695,16.62314,-7.424632,1.5002998,-115.45422,-161.02031,-5.910778,-80.30151,-56.471138,334.67288,0.0
1a,1,None,3257823,1779733232712,0.69,9.3,2.22,1.75,-1.0625,2.9375,-0.16821289,-0.17156982,-0.59729004,-0.76519775
1a,1,None,3257842,1779733232713,0.68,9.33,2.04,2.5,-0.625,1.375,-0.16796875,-0.17193604,-0.5975342,-0.76501465
1a,4,None,29260706,1779733232713,12.604692,3.8978083,-3.4624143,-318.07495,-177.93889,-93.36627,-106.57642,-57.83376,210.37544,0.0
1a,2,None,299841,1779733232718,-9.043128,-2.1938832,-0.5479564,-5.953362,-3.2737598,4.057619,-8.570867,79.16367,171.21947,0.0
1a,1,None,3257870,1779733232737,0.68,9.36,1.93,2.625,-1.6875,0.5,-0.16796875,-0.17248535,-0.59802246,-0.76446533
1a,3,None,3057866,1779733232752,18.70011,-12.425631,8.394022,173.43578,-17.520302,41.269222,-80.16368,-56.449398,334.61313,0.0
1a,1,None,3257888,1779733232772,0.48,9.3,2.03,2.5,-1.9375,0.25,-0.16815186,-0.17285156,-0.59832764,-0.7640991
1a,4,None,29260869,1779733232772,0.8798606,-4.809674,5.828916,35.77504,8.401112,-146.35628,-106.55742,-57.983055,210.33905,0.0
1a,2,None,299902,1779733232772,-9.009629,-2.1771336,-0.47856453,-4.413362,-6.6337595,1.677619,-8.833814,79.20266,170.96288,0.0
1a,1,None,3257903,1779733232772,0.51,9.31,2.0,2.6875,-1.8125,0.5625,-0.16821289,-0.17297363,-0.59851074,-0.763916
1a,1,None,3257931,1779733232795,0.59,9.3,1.89,2.125,-2.25,0.75,-0.16827393,-0.17358398,-0.598938,-0.76342773
1a,3,None,3057926,1779733232811,10.397017,-16.012472,8.169096,164.40578,35.259697,144.37923,-80.0469,-56.349205,334.56177,0.0
1a,1,None,3257970,1779733232830,0.61,9.22,2.06,2.25,-2.125,1.75,-0.16815186,-0.17456055,-0.59936523,-0.76293945
1a,1,None,3257947,1779733232829,0.51,9.18,2.03,2.0625,-1.9375,1.6875,-0.16821289,-0.17407227,-0.5991211,-0.7631836
1a,2,None,299961,1779733232833,-8.9354515,-2.4738433,-0.3828516,-6.163362,-3.6237597,4.057619,-9.125035,79.238556,170.6792,0.0
1a,1,None,3257987,1779733232855,0.64,9.24,1.96,2.8125,-1.8125,1.4375,-0.16802979,-0.17504883,-0.5996704,-0.76257324
1a,1,None,3258003,1779733232856,0.52,9.33,1.91,2.75,-1.8125,1.3125,-0.16802979,-0.17523193,-0.5997925,-0.76239014
1a,4,None,29260888,1779733232859,-0.31176513,-6.1400833,6.075377,30.035038,13.651112,-122.97627,-106.49331,-58.00857,210.29764,0.0
1a,3,None,3057986,1779733232872,9.317853,-9.295819,6.34098,119.255775,52.0597,199.04922,-79.92112,-56.247128,334.48853,0.0
1a,1,None,3258027,1779733232889,0.51,9.21,1.86,2.0,-1.4375,0.5,-0.16809082,-0.17572021,-0.60028076,-0.76190186
1a,2,None,300021,1779733232893,-9.213019,-2.20824,-0.23449661,-5.8833623,-6.8437595,8.677619,-9.394581,79.27494,170.41702,0.0
1a,1,None,3258048,1779733232915,0.54,9.33,1.92,1.75,0.1875,-0.1875,-0.16802979,-0.17578125,-0.60058594,-0.7616577
1a,3,None,3058046,1779733232928,9.849059,-11.379968,-12.169895,171.89577,-85.9103,170.83922,-80.03805,-56.183907,334.65778,0.0
1a,1,None,3258070,1779733232946,0.66,9.3,1.9,1.4375,-0.125,-0.625,-0.16796875,-0.17578125,-0.6008911,-0.7614746
1a,1,None,3258087,1779733232946,0.52,9.27,1.99,1.5625,-0.25,-0.625,-0.16802979,-0.17578125,-0.6010742,-0.7612915
1a,2,None,300082,1779733232952,-8.964165,-2.1508124,-0.41874397,-6.023362,-5.7237597,7.557619,-9.655361,79.3134,170.16339,0.0
1a,1,None,3258109,1779733232975,0.49,9.35,1.98,2.0625,1.125,-0.0625,-0.16796875,-0.17572021,-0.6013794,-0.76104736
1a,3,None,3058106,1779733232987,8.071193,-11.205292,2.57707,37.145775,1.0996995,73.74922,-80.01643,-56.0894,334.6529,0.0
1a,1,None,3258129,1779733233006,0.53,9.3,1.85,1.875,1.25,0.5,-0.16778564,-0.17559814,-0.6017456,-0.76086426
1a,1,None,3258146,1779733233006,0.49,9.29,1.86,1.8125,0.875,0.875,-0.1675415,-0.17565918,-0.6020508,-0.76068115
