session_name,device_id,body_location,device_ts_ms,wall_clock_ms,accel_x,accel_y,accel_z,gyro_x,gyro_y,gyro_z,quat_w,quat_x,quat_y,quat_z
1b,2,None,439435,1779733372380,-7.772539,2.716189,4.5798626,-6.443362,-1.4537598,1.817619,30.718363,55.319687,215.99796,0.0
1b,1,None,3397462,1779733372380,-9.39,-1.67,-1.45,-0.1875,0.4375,0.3125,-0.5999756,0.40704346,-0.6409912,-0.25201416
1b,4,None,29400389,1779733372380,6.349853,-1.605684,-1.2993027,-3.14496,7.0711117,2.323728,-127.4726,-71.4727,232.82277,0.0
1b,3,None,3197459,1779733372380,15.744974,-8.611472,-3.993621,-7.1642237,-9.400301,45.469223,-113.269966,-59.279774,348.45773,0.0
1b,1,None,3397497,1779733372381,-9.36,-1.69,-1.56,0.0,-0.3125,0.375,-0.59991455,0.40704346,-0.64105225,-0.25195312
1b,1,None,3397481,1779733372381,-9.43,-1.67,-1.47,0.0625,0.625,0.125,-0.59991455,0.40704346,-0.64105225,-0.25195312
1b,1,None,3397523,1779733372387,-9.42,-1.68,-1.51,-0.0625,-0.75,0.4375,-0.59991455,0.40704346,-0.6409912,-0.25195312
1b,4,None,29400449,1779733372391,6.467101,-1.7755747,-1.4835501,-4.12496,5.601112,1.3437278,-127.56979,-71.428,232.91296,0.0
1b,3,None,3197520,1779733372401,19.157139,-9.417853,-3.2327034,-11.784224,-21.7203,66.049225,-113.21099,-59.306095,348.4024,0.0
1b,2,None,439525,1779733372407,-7.7414327,2.7114031,4.6468616,-5.5333624,-1.4537598,1.887619,30.620323,55.294025,215.91911,0.0
1b,1,None,3397547,1779733372429,-9.44,-1.65,-1.47,0.0625,-1.375,0.5,-0.60009766,0.40698242,-0.64086914,-0.2520752
1b,1,None,3397557,1779733372429,-9.4,-1.66,-1.5,-0.0625,-0.9375,0.25,-0.6002197,0.4069214,-0.6408081,-0.25213623
1b,1,None,3397581,1779733372447,-9.4,-1.69,-1.51,0.0625,-1.6875,0.3125,-0.6003418,0.40686035,-0.640625,-0.2522583
1b,4,None,29400509,1779733372449,6.4958153,-1.6439695,-1.4763715,-5.24496,2.0311117,1.4837279,-127.74941,-71.42116,233.08119,0.0
1b,2,None,439585,1779733372458,-7.8275743,2.7305458,4.6468616,-4.063362,-3.9737597,0.557619,30.548223,55.353035,215.86067,0.0
1b,3,None,3197580,1779733372459,18.32683,-8.381762,-3.4600215,24.615776,-27.320301,86.909225,-113.18633,-59.34305,348.38696,0.0
1b,1,None,3397597,1779733372477,-9.36,-1.73,-1.38,0.6875,-1.6875,0.375,-0.60058594,0.40679932,-0.6404419,-0.25231934
1b,1,None,3397622,1779733372479,-9.41,-1.73,-1.3,0.875,-1.25,0.5625,-0.60076904,0.4066162,-0.64038086,-0.25231934
1b,1,None,3397637,1779733372508,-9.48,-1.68,-1.29,0.3125,-1.1875,0.625,-0.6008911,0.4064331,-0.6403198,-0.2524414
1b,4,None,29400569,1779733372510,6.438387,-1.6511475,-1.4596218,-6.78496,2.0311117,-2.1562722,-127.924034,-71.40928,233.24445,0.0
1b,2,None,439645,1779733372512,-7.6911836,2.618083,4.673183,-3.9933622,-4.7437596,0.557619,30.43981,55.334896,215.77226,0.0
1b,3,None,3197640,1779733372519,17.465414,-8.420046,-3.9505503,110.505775,-25.920301,82.35922,-113.19142,-59.384396,348.42297,0.0
1b,1,None,3397657,1779733372543,-9.41,-1.75,-1.31,0.125,-1.5,0.5,-0.6010132,0.40637207,-0.64019775,-0.25256348
1b,1,None,3397677,1779733372544,-9.29,-1.72,-1.36,-0.125,-0.5,0.4375,-0.6010742,0.40637207,-0.6401367,-0.25256348
1b,1,None,3397700,1779733372573,-9.42,-1.7,-1.4,-0.4375,-0.5625,0.75,-0.6010742,0.40631104,-0.6401367,-0.2526245
1b,4,None,29400628,1779733372573,6.1943192,-1.6559336,-1.509871,-4.54496,-3.078888,-6.076272,-128.06372,-71.37549,233.376,0.0
1b,2,None,439706,1779733372580,-7.600256,2.6707253,4.6492543,-5.743362,-5.1637597,1.817619,30.385265,55.28428,215.72884,0.0
1b,3,None,3197700,1779733372581,15.297517,-7.699806,-3.6346974,156.77577,-9.9603,83.269226,-113.20297,-59.418144,348.4758,0.0
1b,1,None,3397727,1779733372600,-9.41,-1.73,-1.39,-0.375,-0.3125,0.8125,-0.6010742,0.40618896,-0.64019775,-0.25268555
1b,1,None,3397746,1779733372625,-9.4,-1.76,-1.29,-0.5,-0.0625,0.6875,-0.6010132,0.40612793,-0.6402588,-0.25280762
1b,1,None,3397771,1779733372628,-9.41,-1.73,-1.3,-0.9375,0.125,0.875,-0.6010132,0.40612793,-0.6402588,-0.2529297
1b,4,None,29400689,1779733372629,5.921538,-1.3209382,-1.3256238,-4.75496,-1.2588882,-12.586271,-128.26778,-71.41372,233.5688,0.0
1b,2,None,439765,1779733372632,-8.081213,2.8142946,4.601398,-3.2233622,-3.2737598,3.217619,30.435993,55.331993,215.77171,0.0
1b,3,None,3197760,1779733372637,13.670397,-11.856139,-0.1268196,254.63577,4.1096992,85.08922,-112.991264,-59.363422,348.36353,0.0
1b,1,None,3397786,1779733372657,-9.43,-1.72,-1.38,-0.9375,0.875,1.25,-0.6008911,0.40612793,-0.6402588,-0.2531128
1b,1,None,3397809,1779733372686,-9.41,-1.68,-1.4,-0.5625,1.5,1.5,-0.600647,0.4060669,-0.6405029,-0.25317383
1b,1,None,3397831,1779733372686,-9.41,-1.7,-1.34,-0.75,2.0,1.5625,-0.60028076,0.40612793,-0.6408081,-0.25323486
1b,4,None,29400749,1779733372688,5.8138604,-0.5600205,-1.3782659,-30.514961,5.4611115,-23.366272,-128.46886,-71.46993,233.75046,0.0
1b,2,None,439826,1779733372693,-7.4231873,2.766438,4.5894337,-5.043362,-2.8537598,5.4576187,30.472397,55.266376,215.80373,0.0
1b,3,None,3197820,1779733372700,11.777675,-12.530915,1.8999012,153.76578,24.8997,81.16922,-112.80889,-59.316273,348.24313,0.0
1b,1,None,3397847,1779733372717,-9.48,-1.66,-1.25,-1.25,2.625,1.9375,-0.5999756,0.40612793,-0.64105225,-0.25335693
1b,1,None,3397873,1779733372745,-9.34,-1.72,-1.32,-1.3125,3.6875,1.5,-0.5994873,0.40625,-0.6413574,-0.25335693
1b,1,None,3397888,1779733372745,-9.42,-1.7,-1.43,-1.875,4.0625,2.0625,-0.598999,0.4064331,-0.64172363,-0.25341797
1b,4,None,29400809,1779733372748,5.9358945,-1.7181466,-1.3040884,-20.50496,-4.408888,-22.386272,-128.42888,-71.40623,233.70772,0.0
1b,2,None,439885,1779733372757,-7.5189,2.7137961,4.773681,-5.043362,-2.9937596,7.487619,30.43891,55.20975,215.77866,0.0
1b,3,None,3197880,1779733372757,10.337195,-9.511173,5.630312,175.81577,55.6297,63.24922,-112.61241,-59.3013,348.11346,0.0
1b,1,None,3397913,1779733372775,-9.45,-1.58,-1.53,-1.8125,5.1875,2.625,-0.59820557,0.40655518,-0.642334,-0.25354004
1b,1,None,3397932,1779733372805,-9.45,-1.58,-1.7,-1.6875,5.0,2.4375,-0.5974121,0.40673828,-0.64294434,-0.25360107
1b,1,None,3397948,1779733372806,-9.37,-1.65,-1.65,-0.6875,5.1875,2.25,-0.5966797,0.40686035,-0.6436157,-0.25354004
1b,4,None,29400869,1779733372808,5.3831525,-1.4860429,-1.2059826,-23.65496,1.2611113,-23.716272,-128.4917,-71.35335,233.76096,0.0
1b,2,None,439945,1779733372812,-7.327474,2.7592597,4.802395,-6.303362,-2.2237597,9.657619,30.425167,55.14847,215.77061,0.0
1b,3,None,3197940,1779733372817,9.126427,-9.078073,4.304688,5.2257767,67.5297,65.48922,-112.46659,-59.282055,347.97406,0.0
1b,1,None,3397972,1779733372835,-9.42,-1.65,-1.5,-0.4375,4.5,1.8125,-0.59606934,0.40686035,-0.6442261,-0.25335693
1b,1,None,3397998,1779733372865,-9.48,-1.63,-1.46,-1.0625,4.0625,1.75,-0.59521484,0.40698242,-0.64489746,-0.2532959
1b,4,None,29400929,1779733372869,5.5075793,-0.49302143,-1.1030912,-22.95496,-8.538889,-14.476273,-128.65735,-71.41563,233.91208,0.0
1b,2,None,440005,1779733372872,-8.650705,3.0105062,4.962714,-13.863362,-2.15376,12.107618,30.467094,55.19807,215.81087,0.0
1b,3,None,3198000,1779733372882,9.327424,-7.486845,2.8259234,39.735775,30.4997,69.05922,-112.325485,-59.2615,347.85495,0.0
1b,1,None,3398014,1779733372899,-9.46,-1.61,-1.44,-1.375,4.625,1.5625,-0.5946045,0.40722656,-0.64538574,-0.25323486
1b,1,None,3398038,1779733372899,-9.4,-1.69,-1.45,-0.9375,6.125,1.4375,-0.59381104,0.40740967,-0.64611816,-0.2529297
1b,1,None,3398055,1779733372924,-9.25,-1.71,-1.43,0.875,9.75,2.0,-0.5928955,0.40753174,-0.6470947,-0.25231934
1b,4,None,29400989,1779733372930,4.9333024,-1.1869401,-1.8664017,13.025041,-13.928888,-20.846272,-128.83177,-71.38992,234.08437,0.0
1b,2,None,440065,1779733372933,-7.1719413,3.036827,4.4075794,-9.523362,-4.5337596,14.907619,30.574379,55.148285,215.90376,0.0
1b,3,None,3198060,1779733372941,13.043478,-4.117751,2.481357,-44.684223,-19.6903,25.86922,-112.27936,-59.287586,347.80338,0.0
1b,1,None,3398077,1779733372956,-9.29,-1.65,-1.81,-0.375,9.3125,2.5625,-0.5917969,0.40777588,-0.6481323,-0.25183105
1b,1,None,3398097,1779733372956,-9.43,-1.55,-1.93,-0.5625,7.1875,2.5625,-0.59088135,0.40777588,-0.6491089,-0.25152588
1b,1,None,3398122,1779733372985,-9.37,-1.57,-1.91,0.25,6.3125,2.0,-0.59002686,0.4078369,-0.64990234,-0.25128174
1b,4,None,29401049,1779733372988,4.5169506,-1.3137597,-1.2514462,-24.77496,1.751112,-23.646273,-128.9413,-71.34654,234.18144,0.0
1b,2,None,440125,1779733372992,-7.655291,3.1014333,4.6325045,-12.393362,-4.04376,16.30762,30.688494,55.104553,216.00333,0.0
1b,3,None,3198120,1779733372999,14.852451,-4.2015,7.283752,212.07578,-11.500301,-49.940777,-112.15334,-59.33026,347.76398,0.0
1b,1,None,3398146,1779733373016,-8.98,-1.72,-1.99,0.25,4.4375,2.125,-0.58935547,0.4078369,-0.65057373,-0.25115967
1b,1,None,3398156,1779733373018,-9.07,-1.64,-2.01,1.3125,2.5,2.625,-0.58898926,0.40759277,-0.651062,-0.25115967
1b,1,None,3398189,1779733373046,-8.79,-1.78,-2.19,2.25,-0.125,3.5,-0.58880615,0.4072876,-0.65148926,-0.25091553
1b,4,None,29401109,1779733373049,4.167599,-0.59591305,-1.0193424,-12.73496,30.941113,-31.48627,-129.13177,-71.4034,234.35725,0.0
1b,2,None,440185,1779733373053,-7.4399366,2.8597581,5.1326046,-11.4133625,-9.36376,15.607618,30.660986,55.043102,215.98576,0.0
1b,3,None,3198180,1779733373059,18.36033,-13.387546,7.4273214,77.88577,-75.4103,-28.17078,-112.08225,-59.33377,347.74057,0.0
1b,1,None,3398197,1779733373077,-8.49,-1.86,-2.59,4.4375,-4.125,6.5,-0.5891113,0.40618896,-0.6517334,-0.25128174
1b,1,None,3398221,1779733373078,-8.6,-1.81,-2.66,9.0625,-8.3125,10.5,-0.59002686,0.40405273,-0.6520386,-0.2518921
1b,1,None,3398236,1779733373105,-8.73,-1.76,-2.89,13.6875,-14.8125,13.4375,-0.5917969,0.40081787,-0.65216064,-0.25268555
1b,4,None,29401168,1779733373109,4.598307,1.4116648,-1.4500505,-6.01496,41.581112,-25.886272,-129.30098,-71.4669,234.51389,0.0
1b,2,None,440246,1779733373115,-7.5571856,2.9004362,5.3886366,-6.583362,-6.8437595,16.937618,30.62937,54.984177,215.96397,0.0
1b,3,None,3198240,1779733373126,15.45305,-13.629221,8.226524,-169.42422,-57.490303,20.059221,-112.07767,-59.318527,347.69388,0.0
1b,1,None,3398280,1779733373141,-9.74,-1.77,-0.96,20.0625,-29.6875,22.6875,-0.5979004,0.39068604,-0.65148926,-0.25579834
1b,1,None,3398258,1779733373141,-8.89,-1.67,-2.35,18.3125,-22.1875,19.0,-0.5944214,0.39630127,-0.6520386,-0.25390625
1b,1,None,3398303,1779733373165,-10.44,-1.51,-0.2,21.9375,-29.0625,26.5625,-0.6014404,0.3843994,-0.65112305,-0.2579956
1b,4,None,29401229,1779733373168,3.3420753,-1.9430723,-0.32542387,-34.78496,34.09111,-28.196272,-129.12346,-71.44913,234.33313,0.0
1b,2,None,440305,1779733373172,-7.9328585,3.4914632,4.584648,4.6866384,-0.89375985,14.977619,30.75937,54.966934,216.07158,0.0
1b,3,None,3198300,1779733373183,14.467207,-5.8740826,3.6346974,-23.964224,-91.7203,33.429222,-112.05111,-59.323185,347.67676,0.0
1b,1,None,3398323,1779733373199,-9.93,-1.82,0.28,22.125,-25.625,28.8125,-0.6045532,0.37786865,-0.6512451,-0.2600708
1b,1,None,3398349,1779733373225,-9.77,-1.9,0.39,18.9375,-19.3125,36.25,-0.60705566,0.36779785,-0.65289307,-0.26434326
1b,1,None,3398366,1779733373226,-10.52,-2.0,0.22,10.125,-6.3125,48.0625,-0.60632324,0.36212158,-0.6548462,-0.269104
1b,4,None,29401289,1779733373229,1.765205,-0.6270196,1.8065811,-64.88496,46.27111,-19.446272,-129.01645,-71.48643,234.20757,0.0
1b,2,None,440366,1779733373233,-7.246118,4.106419,5.024927,-5.603362,5.5462403,13.99762,30.849218,54.910576,216.1497,0.0
1b,3,None,3198360,1779733373242,11.949958,-18.65654,4.4817567,-317.33423,-75.4803,54.70922,-112.1028,-59.26603,347.63467,0.0
1b,1,None,3398386,1779733373257,-9.02,-2.02,-0.57,2.625,-6.375,62.0625,-0.604187,0.35473633,-0.6583252,-0.2753296
1b,1,None,3398402,1779733373257,-9.34,-1.85,-1.61,-0.5625,-15.9375,68.0625,-0.6034546,0.35058594,-0.65948486,-0.27923584
1b,1,None,3398427,1779733373285,-12.6,-1.25,-2.19,-1.9375,-1.1875,46.75,-0.59924316,0.34197998,-0.6626587,-0.2913208
1b,4,None,29401349,1779733373288,4.1317067,-0.40927288,2.225325,-42.414963,37.171112,-18.046272,-128.9232,-71.53299,234.10313,0.0
1b,2,None,440425,1779733373292,-7.286796,3.941314,4.718646,0.90663767,3.4462404,5.2476187,30.95454,54.863216,216.23686,0.0
1b,3,None,3198420,1779733373300,10.449658,1.3642055,-0.91884387,-409.45422,-51.680298,63.24922,-112.28876,-59.304626,347.67593,0.0
1b,1,None,3398445,1779733373316,-9.22,-2.05,-2.19,-8.4375,1.0625,54.5625,-0.5961304,0.33703613,-0.6652832,-0.29742432
1b,1,None,3398465,1779733373345,-9.57,-2.43,-1.18,-14.8125,-0.4375,60.4375,-0.5917969,0.33319092,-0.6671753,-0.30603027
1b,1,None,3398486,1779733373346,-9.18,-1.53,-1.62,-17.75,-0.1875,67.375,-0.5873413,0.32757568,-0.6699219,-0.3145752
1b,4,None,29401409,1779733373349,4.679663,0.52392805,1.9525433,-53.40496,28.211111,2.953728,-128.86284,-71.58192,234.02556,0.0
1b,2,None,440485,1779733373353,-7.126477,3.5823905,4.9722853,-14.773361,9.46624,-4.762381,31.011087,54.805584,216.28746,0.0
1b,3,None,3198480,1779733373357,12.811374,-9.815062,-1.8975083,-191.05423,-42.3003,100.769226,-112.262184,-59.220413,347.59592,0.0
1b,1,None,3398507,1779733373375,-9.14,-1.64,-2.14,-18.8125,-4.0,72.5,-0.58239746,0.32202148,-0.6720581,-0.32476807
1b,4,None,29401469,1779733373408,3.978566,0.0046855276,2.5794628,-59.42496,22.471111,31.373728,-128.7652,-71.61308,233.90913,0.0
1b,2,None,440545,1779733373413,-6.7771254,3.42925,5.2570314,-1.6133623,7.43624,-21.282381,31.024048,54.748653,216.29561,0.0
1b,3,None,3198540,1779733373418,15.582262,-4.4096756,-1.7324035,-26.344223,-38.6603,70.10922,-112.27449,-59.260643,347.60022,0.0
1b,1,None,3398527,1779733373436,-9.84,0.3,-1.99,-16.3125,-9.5625,75.0625,-0.5782471,0.3147583,-0.6743164,-0.33441162
1b,1,None,3398550,1779733373436,-9.48,0.38,-0.41,-15.8125,-17.0625,75.3125,-0.57489014,0.30682373,-0.6759033,-0.34429932
1b,1,None,3398567,1779733373438,-9.44,0.25,0.39,-18.9375,-20.4375,78.0625,-0.5713501,0.29919434,-0.6765747,-0.3554077
1b,1,None,3398587,1779733373465,-9.61,0.17,0.96,-20.75,-15.1875,81.6875,-0.5673828,0.29083252,-0.6777344,-0.366333
1b,1,None,3398609,1779733373466,-9.14,0.32,0.47,-19.875,-2.75,86.625,-0.5609741,0.28405762,-0.6793823,-0.37823486
1b,4,None,29401529,1779733373469,4.1340995,0.8541373,2.6392832,-63.06496,13.161112,37.043728,-128.69678,-71.6459,233.81958,0.0
1b,2,None,440605,1779733373474,-8.057285,3.3550725,4.098905,-13.093363,7.9262404,-23.172382,31.106195,54.7816,216.36327,0.0
1b,3,None,3198600,1779733373485,17.233309,-13.576579,-3.912265,19.855776,2.219699,76.12922,-112.18813,-59.16905,347.52646,0.0
1b,1,None,3398635,1779733373499,-8.86,1.36,-1.08,-15.875,5.5625,90.875,-0.55023193,0.2709961,-0.68481445,-0.39343262
1b,1,None,3398651,1779733373525,-8.64,1.71,-1.86,-10.625,-0.8125,93.0,-0.54693604,0.26611328,-0.68652344,-0.39837646
1b,4,None,29401589,1779733373528,5.019444,-0.80648124,2.9647074,-66.774956,1.8211117,25.563728,-128.60301,-71.66954,233.70654,0.0
1b,3,None,3198660,1779733373541,15.144376,-2.6389866,-5.1326046,15.585776,13.769699,53.519222,-112.26279,-59.207714,347.58936,0.0
1b,1,None,3398676,1779733373558,-8.33,2.36,-1.97,-3.125,-16.5625,96.6875,-0.5380249,0.25030518,-0.69018555,-0.41418457
1b,1,None,3398696,1779733373559,-8.41,2.74,-1.56,1.625,-20.6875,101.0,-0.5333252,0.23712158,-0.6925659,-0.4239502
1b,2,None,440666,1779733373564,-7.643327,3.0081131,4.8693943,-5.6733623,8.62624,-32.13238,31.117598,54.72603,216.36955,0.0
1b,1,None,3398712,1779733373586,-8.26,3.52,-0.5,3.0,-21.25,99.6875,-0.53063965,0.23095703,-0.69348145,-0.42919922
1b,4,None,29401649,1779733373589,3.9091737,-0.9476579,3.4863427,-80.42496,0.07111168,17.093727,-128.51768,-71.68992,233.59772,0.0
1b,3,None,3198720,1779733373601,9.1694975,-7.9223385,2.5124636,159.71577,29.239698,71.08922,-112.07911,-59.181213,347.46985,0.0
1b,1,None,3398737,1779733373617,-9.01,3.99,0.27,1.4375,-14.5625,101.875,-0.52264404,0.2109375,-0.6970215,-0.44329834
1b,1,None,3398753,1779733373619,-8.98,4.36,0.87,1.3125,-12.25,101.8125,-0.51953125,0.20440674,-0.6983032,-0.44787598
1b,2,None,440725,1779733373627,-7.4806147,3.0152917,3.9720855,-13.443362,13.59624,-28.912382,31.196848,54.762745,216.43452,0.0
1b,1,None,3398776,1779733373648,-8.27,4.61,1.65,-3.0,-5.0,100.8125,-0.50891113,0.18676758,-0.70184326,-0.46209717
1b,4,None,29401708,1779733373650,4.662913,-1.4740789,4.213761,-109.19496,-2.7288885,40.33373,-128.42413,-71.701164,233.47015,0.0
1b,3,None,3198780,1779733373658,13.682362,-9.116358,-2.2085752,36.095776,84.189705,108.11922,-111.895096,-59.120758,347.30148,0.0
1b,1,None,3398799,1779733373677,-8.37,5.38,1.74,-5.9375,-0.9375,104.0625,-0.5,0.17492676,-0.70477295,-0.4718628
1b,1,None,3398817,1779733373678,-7.95,7.8,0.29,-7.875,21.8125,111.4375,-0.48828125,0.16430664,-0.70874023,-0.48187256
1b,2,None,440815,1779733373683,-8.988093,2.309409,4.5391846,-13.863362,13.17624,-35.77238,31.139513,54.837887,216.38684,0.0
1b,1,None,3398844,1779733373707,-7.45,9.07,-0.57,-11.125,27.6875,110.5,-0.475708,0.15405273,-0.71307373,-0.49139404
1b,4,None,29401769,1779733373710,6.0411787,1.0862416,7.812566,-127.60496,-42.278885,23.813728,-128.41586,-71.71588,233.42203,0.0
1b,3,None,3198840,1779733373719,11.540785,-6.7546415,0.7322037,173.43578,65.4997,39.379223,-111.6953,-59.1283,347.16846,0.0
1b,1,None,3398858,1779733373738,-6.62,11.02,-2.42,-14.1875,28.5,107.9375,-0.4623413,0.14501953,-0.7167969,-0.5014038
1b,1,None,3398878,1779733373738,-6.47,11.9,-3.53,-15.4375,22.8125,104.4375,-0.44995117,0.13543701,-0.7199707,-0.5107422
1b,2,None,440875,1779733373744,-8.021393,1.8260589,4.0606203,-16.033361,14.01624,-34.16238,31.064402,54.91133,216.32556,0.0
1b,1,None,3398901,1779733373767,-7.44,10.79,-2.56,-20.375,14.8125,94.375,-0.43933105,0.12646484,-0.72143555,-0.52008057
1b,4,None,29401829,1779733373770,7.141877,-1.3783658,9.482756,-223.64496,1.6811113,14.853728,-128.38925,-71.7363,233.32143,0.0
1b,3,None,3198900,1779733373785,13.199012,-11.77957,0.9260224,6.5557766,79.6397,26.009222,-111.54494,-59.10729,347.0264,0.0
1b,1,None,3398918,1779733373802,-6.22,10.23,-1.83,-24.0,11.875,92.625,-0.428833,0.11853027,-0.7220459,-0.52978516
1b,2,None,440935,1779733373805,-8.746418,1.4982421,4.106084,-9.943362,27.106241,-38.36238,30.990967,54.98939,216.2645,0.0
1b,1,None,3398946,1779733373827,-8.31,10.8,0.19,-33.4375,4.4375,97.8125,-0.4185791,0.109375,-0.7215576,-0.54052734
1b,1,None,3398963,1779733373828,-7.77,9.62,1.5,-43.5,-5.0625,80.6875,-0.40997314,0.10211182,-0.7190552,-0.55181885
1b,4,None,29401889,1779733373830,7.6587267,1.0551345,8.295916,-98.76496,4.411112,-2.296272,-128.34811,-71.76969,233.24937,0.0
1b,3,None,3198960,1779733373843,14.883558,-13.389939,1.7467606,111.20577,-14.090301,33.429222,-111.40792,-59.07524,346.9423,0.0
1b,1,None,3398985,1779733373860,-6.1,7.89,2.44,-50.0625,17.125,63.5,-0.39916992,0.095581055,-0.71380615,-0.56744385
1b,2,None,440996,1779733373863,-7.5452213,0.5052208,3.2590244,-37.66336,33.26624,-31.99238,30.90007,55.066086,216.19872,0.0
1b,1,None,3399006,1779733373887,-4.14,7.72,2.16,-44.6875,59.25,51.8125,-0.38708496,0.09741211,-0.713562,-0.57580566
1b,1,None,3399026,1779733373888,-0.09,5.59,0.06,-40.0625,65.4375,76.0625,-0.3717041,0.09838867,-0.71502686,-0.58392334
1b,4,None,29401949,1779733373890,3.3133612,-3.2950172,7.7527456,84.28504,-11.128889,-20.356272,-128.23392,-71.785805,233.17119,0.0
1b,3,None,3199020,1779733373898,10.698511,-7.348062,5.166104,68.855774,16.989698,78.22922,-111.270355,-59.05939,346.83698,0.0
1b,1,None,3399049,1779733373918,4.47,6.23,1.43,-52.0,60.125,87.875,-0.3554077,0.09674072,-0.71484375,-0.59436035
1b,2,None,441055,1779733373923,-8.679419,0.55547005,3.4695928,-32.27336,35.85624,-38.71238,30.818483,55.146973,216.13808,0.0
1b,1,None,3399071,1779733373946,4.6,5.47,0.83,-53.0,53.1875,101.0,-0.33776855,0.09436035,-0.71435547,-0.6055908
1b,1,None,3399089,1779733373950,3.06,6.51,-1.84,-47.0625,58.0625,128.5,-0.31774902,0.088012695,-0.7141113,-0.6175537
1b,4,None,29402009,1779733373952,3.6052854,-5.551449,5.522635,37.175037,-1.958888,-29.456272,-128.11096,-71.794655,233.0689,0.0
1b,3,None,3199080,1779733373967,14.481564,-6.498609,0.89013004,31.475777,-8.490301,110.42922,-111.162224,-59.05431,346.74786,0.0
1b,1,None,3399113,1779733373976,2.31,6.43,-2.64,-36.1875,63.4375,149.375,-0.2939453,0.07977295,-0.71533203,-0.62890625
1b,2,None,441116,1779733373985,-8.164962,-0.37294513,3.235096,-33.39336,34.17624,-37.03238,30.719076,55.22287,216.06317,0.0
1b,1,None,3399136,1779733374008,3.11,7.1,-2.36,-31.3125,35.3125,166.5,-0.270813,0.066345215,-0.7160034,-0.64001465
1b,4,None,29402069,1779733374009,5.2611184,-5.2475605,5.0823555,33.605038,-24.848886,-14.266272,-127.99215,-71.79731,232.97026,0.0
1b,3,None,3199140,1779733374018,17.09692,-5.6395864,-0.35653055,109.66577,-15.9103,64.99922,-111.07517,-59.086082,346.7045,0.0
1b,1,None,3399154,1779733374036,2.32,8.38,-2.07,-31.9375,-17.625,183.1875,-0.2514038,0.045715332,-0.7141113,-0.6517334
1b,1,None,3399176,1779733374038,0.56,9.69,-1.81,-29.75,-113.25,186.8125,-0.2341919,0.0010986328,-0.70513916,-0.6692505
1b,2,None,441175,1779733374043,-9.019199,-0.6002633,2.778067,-17.223362,29.97624,-40.812378,30.639874,55.30298,215.99908,0.0
1b,1,None,3399198,1779733374066,-2.14,9.66,-1.12,-20.8125,-164.125,187.75,-0.23095703,-0.037841797,-0.6959839,-0.67889404
1b,4,None,29402129,1779733374070,4.208277,-9.279467,8.183454,42.91504,-43.748886,14.853728,-127.87392,-71.78094,232.87497,0.0
1b,3,None,3199200,1779733374078,11.937994,-5.022238,3.787838,113.02577,-31.7303,54.91922,-110.96298,-59.088936,346.64386,0.0
1b,1,None,3399221,1779733374102,-6.86,11.82,0.56,-8.9375,-159.8125,169.375,-0.23022461,-0.0769043,-0.6864624,-0.68548584
1b,1,None,3399236,1779733374103,-10.52,12.23,1.97,3.5,-122.125,144.875,-0.22790527,-0.10961914,-0.67907715,-0.68914795
1b,2,None,441235,1779733374103,-8.830167,-1.3898947,3.0747771,-13.093363,24.44624,-33.32238,30.54412,55.37479,215.92085,0.0
1b,1,None,3399257,1779733374125,-11.31,10.47,3.08,1.375,-83.625,113.0625,-0.22393799,-0.13427734,-0.67333984,-0.6917114
1b,4,None,29402189,1779733374128,5.6463633,-5.0489564,5.35753,-7.48496,-28.768888,34.103725,-127.74339,-71.77175,232.7487,0.0
1b,3,None,3199260,1779733374144,12.818552,-10.087844,2.644069,2.2157764,-5.830301,81.86922,-110.850975,-59.055832,346.54416,0.0
1b,1,None,3399277,1779733374161,-7.58,7.66,1.26,-13.875,-66.75,81.9375,-0.22167969,-0.15222168,-0.6673584,-0.694458
1b,1,None,3399301,1779733374161,-6.91,6.5,-0.66,-15.0,-44.375,64.75,-0.2197876,-0.1652832,-0.66174316,-0.69744873
1b,2,None,441295,1779733374163,-8.820596,-1.9187087,2.2707887,-7.213362,23.04624,-18.342382,30.466408,55.447086,215.85814,0.0
1b,1,None,3399317,1779733374185,-13.69,5.29,5.56,-15.9375,-34.125,54.25,-0.21716309,-0.1751709,-0.6571045,-0.70025635
1b,4,None,29402249,1779733374189,5.060122,-1.6966116,3.072384,42.07504,-49.068886,4.7037277,-127.64775,-71.782394,232.67575,0.0
1b,3,None,3199320,1779733374203,11.055041,-7.369597,1.4596218,34.905777,11.8797,79.27922,-110.71862,-59.034138,346.43405,0.0
1b,1,None,3399344,1779733374219,-30.05,19.06,-0.36,-44.75,-42.25,33.25,-0.2185669,-0.18414307,-0.649353,-0.70477295
1b,1,None,3399359,1779733374219,21.17,17.14,-4.93,-17.0,36.3125,-62.8125,-0.22387695,-0.1765747,-0.64923096,-0.70513916
1b,2,None,441355,1779733374222,-8.133856,-2.7681606,2.4071796,12.386637,0.8562402,6.997619,30.38537,55.50263,215.78911,0.0
1b,1,None,3399385,1779733374245,2.77,14.98,-0.2,-42.375,-14.1875,-11.1875,-0.2298584,-0.16967773,-0.6427002,-0.7108154
1b,4,None,29402309,1779733374249,7.2088766,-4.8479586,3.885944,24.29504,-101.00889,-33.09627,-127.599304,-71.776505,232.64873,0.0
1b,3,None,3199380,1779733374263,10.550157,-13.923538,5.558527,-52.87422,47.0197,75.21922,-110.60635,-58.996838,346.3093,0.0
1b,1,None,3399402,1779733374280,-1.56,5.24,1.67,-40.25,14.9375,-41.625,-0.2321167,-0.16577148,-0.6411743,-0.71240234
1b,2,None,441416,1779733374282,-10.186897,-0.861081,2.3449662,42.416637,1.2762402,14.067619,30.35624,55.566505,215.7554,0.0
1b,1,None,3399428,1779733374306,2.11,9.73,3.21,-37.25,24.875,-25.125,-0.23413086,-0.15698242,-0.6390991,-0.7155762
1b,1,None,3399446,1779733374306,-2.05,9.8,3.25,-35.6875,-9.5625,-16.5,-0.23724365,-0.15435791,-0.6347656,-0.71899414
1b,4,None,29402369,1779733374309,7.251947,-2.2852457,6.601798,2.9450402,-123.82888,-45.34627,-127.62285,-71.78519,232.6858,0.0
1b,3,None,3199440,1779733374317,12.454843,-10.915761,6.62094,-87.45422,41.3497,91.66922,-110.505745,-58.97029,346.18414,0.0
1b,1,None,3399464,1779733374335,-1.13,8.79,2.17,-19.75,2.0,-13.125,-0.23968506,-0.1517334,-0.6323242,-0.72088623
1b,2,None,441475,1779733374342,-9.373339,0.33772317,-0.3684947,-7.563362,2.8162403,-4.622381,30.362415,55.633045,215.76218,0.0
1b,1,None,3399489,1779733374365,-0.19,9.68,1.43,-14.375,-20.5625,-9.5,-0.24389648,-0.15148926,-0.6293335,-0.72210693
1b,1,None,3399504,1779733374366,-0.33,10.07,1.25,-16.4375,-25.625,-7.625,-0.24597168,-0.15234375,-0.6279297,-0.7225342
1b,4,None,29402429,1779733374369,5.325725,-3.1155555,2.7732813,-43.18496,-69.36889,-21.476273,-127.56724,-71.78641,232.62607,0.0
1b,3,None,3199500,1779733374377,12.885551,-11.650356,4.2448673,-27.674223,30.359701,60.589222,-110.392105,-58.94547,346.06955,0.0
1b,1,None,3399526,1779733374395,-0.69,9.9,1.51,-15.25,-22.8125,-5.5625,-0.2510376,-0.15472412,-0.6237793,-0.7238159
1b,2,None,441536,1779733374402,-8.97613,-1.0836134,1.1365907,17.566637,23.88624,-18.552382,30.328144,55.71096,215.72803,0.0
1b,1,None,3399550,1779733374425,-0.92,9.34,1.71,-14.875,-25.6875,-0.125,-0.2541504,-0.15710449,-0.62091064,-0.7246704
1b,1,None,3399567,1779733374426,-2.02,9.93,0.58,-11.5,-18.25,4.3125,-0.2564087,-0.1593628,-0.6185303,-0.72546387
1b,4,None,29402489,1779733374429,4.5719857,-1.4645073,4.7952166,-17.984959,-48.928886,-12.026272,-127.5161,-71.80134,232.57655,0.0
1b,3,None,3199560,1779733374437,11.703497,-12.413667,3.1274192,-72.26423,25.1097,45.469223,-110.30038,-58.91351,345.96225,0.0
1b,1,None,3399597,1779733374455,-1.53,9.68,1.17,-11.9375,-2.0,8.375,-0.2564087,-0.16040039,-0.61657715,-0.7268677
1b,2,None,441595,1779733374462,-9.246518,-2.0120287,2.4000013,17.356638,23.46624,-18.132381,30.257553,55.782997,215.66394,0.0
1b,1,None,3399607,1779733374485,-0.62,9.76,1.07,-15.5625,4.8125,11.25,-0.25506592,-0.16040039,-0.61468506,-0.7289429
1b,1,None,3399627,1779733374486,-1.89,9.55,1.66,-19.3125,1.75,16.875,-0.25335693,-0.1609497,-0.61206055,-0.7316284
1b,4,None,29402549,1779733374489,5.2778687,-0.51455694,2.5411777,-15.18496,1.0511112,-19.026272,-127.439476,-71.8409,232.49991,0.0
1b,3,None,3199620,1779733374505,9.980664,-9.2838545,1.6773688,-183.98422,35.9597,35.039223,-110.24122,-58.887535,345.8483,0.0
1b,1,None,3399652,1779733374521,-1.56,9.26,1.85,-16.3125,12.1875,20.9375,-0.25048828,-0.16113281,-0.6097412,-0.7344971
1b,2,None,441656,1779733374524,-8.964165,-2.2489183,1.18684,10.496637,13.94624,-23.242382,30.196365,55.857166,215.60773,0.0
1b,1,None,3399667,1779733374545,-0.51,9.12,2.42,-11.75,19.625,21.875,-0.24615479,-0.16046143,-0.60839844,-0.73724365
1b,1,None,3399687,1779733374546,-0.21,9.3,2.3,-11.75,11.1875,20.375,-0.24243164,-0.16046143,-0.60687256,-0.73968506
1b,4,None,29402609,1779733374552,4.835196,0.3588228,2.7302105,34.445038,-7.698889,-39.956272,-127.38819,-71.888725,232.46591,0.0
1b,3,None,3199680,1779733374563,7.106885,-13.32294,2.0841484,-204.07423,73.4797,47.07922,-110.18383,-58.84083,345.72278,0.0
1b,1,None,3399710,1779733374578,-0.08,9.6,2.18,-12.3125,5.125,17.875,-0.23791504,-0.1595459,-0.6055298,-0.7424927
1b,2,None,441715,1779733374583,-9.00245,-0.030771516,-0.19381864,7.5566382,23.67624,-10.08238,30.202263,55.93209,215.61105,0.0
1b,1,None,3399733,1779733374607,-0.43,10.05,2.38,-11.75,0.6875,13.375,-0.23651123,-0.16021729,-0.6036377,-0.74432373
1b,1,None,3399750,1779733374609,-1.03,9.76,2.13,-8.0625,5.75,11.375,-0.23492432,-0.16070557,-0.60217285,-0.74591064
1b,4,None,29402669,1779733374609,5.6583276,-0.22023967,2.1391835,60.27504,14.281112,-73.06628,-127.32053,-71.95108,232.42517,0.0
1b,3,None,3199740,1779733374618,5.4127665,-14.00968,1.8999012,-120.77423,33.579697,86.97922,-110.1187,-58.77195,345.61984,0.0
1b,1,None,3399767,1779733374639,-0.56,9.1,2.16,-1.625,15.3125,9.0625,-0.23101807,-0.15863037,-0.60235596,-0.7473755
1b,2,None,441775,1779733374642,-8.693776,-2.1268842,0.715454,33.666637,0.8562402,-3.992381,30.162132,56.000153,215.56746,0.0
1b,1,None,3399798,1779733374666,0.35,9.54,2.15,-3.3125,8.9375,5.125,-0.22912598,-0.15777588,-0.60235596,-0.74816895
1b,1,None,3399807,1779733374666,-0.54,9.47,2.36,-5.6875,-2.0625,1.6875,-0.22857666,-0.15759277,-0.6016846,-0.74890137
1b,4,None,29402729,1779733374670,5.5123653,-3.9147582,0.66041905,50.12504,0.91111183,-51.43627,-127.15968,-71.94914,232.2922,0.0
1b,3,None,3199800,1779733374678,9.243675,-13.284655,-0.5455636,9.355777,-2.3303006,67.09922,-110.03255,-58.694847,345.5452,0.0
1b,1,None,3399833,1779733374696,-0.67,9.34,2.45,-4.625,-1.5625,-0.1875,-0.22894287,-0.15765381,-0.60095215,-0.74938965
1b,2,None,441835,1779733374711,-8.964165,1.7805952,2.024328,-17.223362,-4.60376,50.25762,30.197502,56.050415,215.6098,0.0
1b,1,None,3399852,1779733374727,-0.51,9.58,2.28,-3.625,-0.6875,0.0,-0.22906494,-0.15753174,-0.60046387,-0.74975586
1b,1,None,3399872,1779733374728,-0.5,9.26,2.24,-3.125,-1.6875,-0.875,-0.22875977,-0.15704346,-0.6001587,-0.75024414
1b,4,None,29402789,1779733374729,4.823232,-6.2022963,2.7062824,-85.744965,15.121112,21.083729,-127.00778,-71.93293,232.11662,0.0
1b,3,None,3199860,1779733374744,6.460823,-10.973187,-2.318645,-0.93422365,-53.500298,44.13922,-110.01787,-58.60305,345.5388,0.0
1b,1,None,3399892,1779733374761,-0.67,9.41,2.14,-2.6875,-0.5,-0.25,-0.2290039,-0.15686035,-0.5997925,-0.75042725
1b,2,None,441895,1779733374764,-8.054893,0.6751112,1.8113667,-34.653362,-3.2037597,70.69762,30.203104,56.10256,215.63608,0.0
1b,1,None,3399912,1779733374787,-0.62,9.32,1.84,-2.4375,1.6875,-0.5,-0.22851562,-0.15600586,-0.59991455,-0.7507324
1b,1,None,3399933,1779733374788,-0.47,9.3,1.88,-2.5625,-0.25,-0.9375,-0.2286377,-0.15570068,-0.5996094,-0.75097656
1b,4,None,29402849,1779733374789,4.4092736,-0.39013037,1.4931213,-102.96496,42.77111,57.133728,-126.879906,-71.96366,231.95343,0.0
1b,3,None,3199920,1779733374803,7.5088787,-7.063316,-2.5890338,109.035774,-24.240301,31.95922,-109.98743,-58.51495,345.54745,0.0
1b,1,None,3399947,1779733374820,-0.75,9.52,1.77,-4.1875,-6.0,-0.875,-0.22930908,-0.15600586,-0.598999,-0.75115967
1b,2,None,441956,1779733374823,-8.464066,-11.650317,-3.8668015,-8.263362,49.99624,-21.982382,30.129423,56.184128,215.57848,0.0
1b,1,None,3399976,1779733374845,-0.73,9.56,1.82,-3.625,-5.25,-0.1875,-0.23022461,-0.15631104,-0.598999,-0.7508545
1b,4,None,29402909,1779733374848,4.756233,-0.28723875,2.012364,-25.264961,35.84111,41.663727,-126.74263,-71.99629,231.8087,0.0
1b,3,None,3199980,1779733374863,10.7559395,-14.378175,-3.8309093,-8.494224,-37.3303,39.09922,-109.97639,-58.423916,345.53946,0.0
1b,1,None,3400011,1779733374879,-1.04,9.18,2.22,-2.3125,-1.6875,5.9375,-0.23010254,-0.15759277,-0.5979004,-0.75146484
1b,1,None,3399998,1779733374879,-0.99,9.08,2.32,-2.5,-3.875,2.25,-0.23040771,-0.15722656,-0.59814453,-0.75128174
1b,2,None,442015,1779733374883,-15.080219,1.6298474,-1.0935199,24.216637,77.92624,-15.682381,30.17688,56.27218,215.61588,0.0
1b,1,None,3400037,1779733374908,-0.97,9.32,2.12,-1.25,3.5625,9.9375,-0.22875977,-0.15814209,-0.5975952,-0.75201416
1b,4,None,29402969,1779733374908,5.900003,0.41146484,4.0199423,23.52504,4.5511117,-16.296272,-126.663185,-72.03742,231.74161,0.0
1b,3,None,3200040,1779733374918,9.492529,-13.3779745,3.1345978,-44.824223,-28.2303,52.679222,-109.90995,-58.37396,345.4711,0.0
1b,1,None,3400054,1779733374937,-0.83,9.33,2.31,0.1875,8.1875,12.25,-0.22583008,-0.15814209,-0.59765625,-0.75286865
1b,1,None,3400080,1779733374938,-0.29,9.47,2.1,0.5625,8.875,12.1875,-0.22332764,-0.15826416,-0.5977173,-0.75354004
1b,2,None,442076,1779733374944,-10.191683,-1.4760364,2.9431717,-0.77336216,47.616238,-1.6823812,30.114403,56.34872,215.56848,0.0
1b,1,None,3400096,1779733374967,-0.56,9.31,2.09,0.9375,7.25,7.4375,-0.2211914,-0.15802002,-0.5979614,-0.7540283
1b,4,None,29403029,1779733374970,6.3689957,-5.8744802,3.8907297,-67.61496,-11.338888,-14.826271,-126.55353,-72.03699,231.61678,0.0
1b,3,None,3200100,1779733374979,8.595221,-9.269498,-2.0961127,-7.5842237,-61.9003,77.80922,-109.88552,-58.270775,345.45383,0.0
1b,1,None,3400123,1779733374997,0.01,9.5,2.02,-0.5,3.125,2.875,-0.21990967,-0.15777588,-0.5979614,-0.75445557
1b,1,None,3400140,1779733374998,0.32,9.28,2.14,-1.75,0.0625,0.5,-0.22027588,-0.15783691,-0.59765625,-0.75457764
1b,2,None,442135,1779733375004,-9.071842,-1.5047504,-0.44985065,-17.573362,14.50624,6.717619,30.092854,56.420444,215.55817,0.0
1b,1,None,3400156,1779733375027,-0.19,9.43,1.98,-2.8125,-3.8125,-5.9375,-0.22137451,-0.15771484,-0.597229,-0.75457764
1b,4,None,29403089,1779733375029,5.139085,-2.105784,2.9766715,-91.76496,-3.708888,28.153728,-126.440315,-72.046616,231.47711,0.0
1b,3,None,3200160,1779733375039,3.003194,-7.7045927,7.4488573,23.145777,183.9397,-6.4007797,-109.70573,-58.28459,345.27643,0.0
1b,1,None,3400176,1779733375057,-0.47,9.45,2.15,-2.5,-3.4375,-7.6875,-0.22271729,-0.15734863,-0.59698486,-0.7545166
1b,1,None,3400197,1779733375059,-0.63,9.39,2.25,-1.375,-3.625,-7.25,-0.22406006,-0.15692139,-0.5968628,-0.75427246
1b,2,None,442195,1779733375064,-8.837345,-1.1458269,0.15074782,-5.6733623,-7.0537596,2.447619,30.065125,56.485905,215.53644,0.0
1b,1,None,3400216,1779733375087,-0.86,9.6,2.1,0.125,-2.4375,-4.625,-0.22503662,-0.15673828,-0.59680176,-0.7540283
1b,4,None,29403149,1779733375090,6.3426747,-2.201497,6.183054,-62.22496,-2.2388887,32.143726,-126.330444,-72.05793,231.35004,0.0
1b,3,None,3200220,1779733375103,10.349159,-13.150657,-2.0482562,7.1857767,3.7596989,32.519222,-109.640236,-58.20889,345.22018,0.0
1b,1,None,3400240,1779733375120,-0.64,9.28,2.18,0.25,-1.75,-2.25,-0.2255249,-0.15667725,-0.59680176,-0.75390625
1b,1,None,3400258,1779733375120,-0.55,9.58,2.24,-0.5625,-4.125,-0.9375,-0.22564697,-0.15655518,-0.5969238,-0.7538452
1b,2,None,442255,1779733375124,-9.552799,-1.265468,0.74656063,-6.093362,-0.053759813,4.687619,30.03086,56.552704,215.5104,0.0
1b,1,None,3400283,1779733375146,-0.73,9.52,2.08,-1.125,-5.1875,0.5625,-0.2263794,-0.15686035,-0.5968628,-0.7536011
1b,4,None,29403208,1779733375150,6.4862437,-5.1015983,3.275774,-101.07496,-0.4188881,17.933727,-126.19933,-72.05217,231.19063,0.0
1b,3,None,3200280,1779733375165,9.59542,-8.333905,-1.6031911,-20.044224,-13.390301,46.09922,-109.57454,-58.13185,345.1579,0.0
1b,1,None,3400303,1779733375180,-0.76,9.52,2.17,-1.0625,-3.875,3.5,-0.2267456,-0.1572876,-0.59680176,-0.753479
1b,1,None,3400318,1779733375180,-0.61,9.46,2.13,-0.6875,-2.25,5.625,-0.22680664,-0.15783691,-0.5967407,-0.75335693
1b,2,None,442315,1779733375184,-9.402051,-1.3085388,0.7920243,-1.683362,0.2962402,1.2576189,29.994507,56.620144,215.48079,0.0
1b,1,None,3400344,1779733375207,-0.53,9.45,2.26,-0.5625,-1.25,6.5625,-0.22625732,-0.1585083,-0.5966797,-0.75341797
1b,4,None,29403269,1779733375209,6.8427744,-2.069892,6.802795,-58.304962,-38.148888,36.343727,-126.11976,-72.055954,231.09656,0.0
1b,3,None,3200340,1779733375222,9.688741,-10.913367,-3.5676987,66.54578,-3.8703008,28.249222,-109.53903,-58.0467,345.14642,0.0
1b,1,None,3400363,1779733375239,-0.49,9.32,2.21,-0.5,0.1875,6.9375,-0.22564697,-0.15911865,-0.5965576,-0.7536011
1b,1,None,3400379,1779733375239,-0.24,9.36,2.13,-0.4375,1.5,6.0625,-0.22473145,-0.1595459,-0.5964966,-0.7537842
1b,2,None,442375,1779733375242,-9.224983,-1.3803235,0.6053842,-9.4533615,3.7262402,-0.4923811,29.956537,56.689068,215.4521,0.0
1b,1,None,3400401,1779733375265,-0.14,9.44,2.21,-0.125,0.625,3.5,-0.22406006,-0.15985107,-0.59643555,-0.7540283
1b,4,None,29403329,1779733375268,7.2064834,-3.8716872,8.054241,-104.43496,-10.638887,46.633728,-126.01601,-72.05642,230.96112,0.0
1b,3,None,3200400,1779733375280,14.335602,-9.046966,0.24885355,-34.604225,-6.3903008,31.819221,-109.45249,-58.042034,345.0619,0.0
1b,1,None,3400418,1779733375295,-0.29,9.49,2.31,0.25,-0.6875,1.625,-0.22473145,-0.16082764,-0.5961914,-0.7537842
1b,2,None,442435,1779733375302,-9.090984,-1.4951789,0.52163535,-10.223362,0.3662402,-0.77238107,29.916004,56.75706,215.4211,0.0
1b,1,None,3400449,1779733375325,-0.57,9.3,2.21,0.625,-0.5,1.3125,-0.22467041,-0.1609497,-0.5961914,-0.7537842
1b,1,None,3400458,1779733375326,-0.31,9.3,2.25,1.125,1.0,1.3125,-0.22564697,-0.16186523,-0.5961304,-0.75335693
1b,4,None,29403389,1779733375328,6.0459647,-1.158226,7.7647095,50.75504,2.8711119,-11.466271,-125.903595,-72.08356,230.87152,0.0
1b,3,None,3200460,1779733375337,10.590835,-12.341882,-0.75613195,-20.744223,-8.490301,28.739222,-109.38348,-57.978832,344.9969,0.0
1b,1,None,3400484,1779733375355,-0.43,9.39,2.26,1.1875,-0.5,1.375,-0.22540283,-0.16210938,-0.5963135,-0.75323486
1b,1,None,3400498,1779733375357,-0.43,9.46,2.23,1.6875,-1.5625,1.5625,-0.22540283,-0.16223145,-0.5963745,-0.7531128
1b,2,None,442496,1779733375363,-9.193876,-1.2678609,-0.043070808,-9.6633625,0.22624022,1.397619,29.88941,56.824905,215.40192,0.0
1b,1,None,3400518,1779733375386,-0.72,9.21,2.17,2.6875,-0.5625,3.125,-0.22436523,-0.1618042,-0.5969238,-0.7531128
1b,4,None,29403449,1779733375388,6.500601,-2.9073799,7.494321,57.335037,42.77111,-10.136271,-125.73718,-72.11308,230.72914,0.0
1b,3,None,3200520,1779733375397,10.669797,-10.181164,-1.9070797,-28.654224,1.6596994,40.70922,-109.32231,-57.901817,344.9338,0.0
1b,1,None,3400538,1779733375415,-0.59,9.41,2.24,3.375,1.25,5.8125,-0.22387695,-0.16192627,-0.5973511,-0.75286865
1b,1,None,3400558,1779733375416,-0.25,9.42,2.17,4.0625,2.0625,7.9375,-0.22332764,-0.16278076,-0.5977173,-0.7525635
1b,2,None,442555,1779733375422,-9.217804,-1.4042518,0.5072784,-7.633362,-5.6537595,0.557619,29.850843,56.890812,215.37141,0.0
1b,1,None,3400584,1779733375445,-0.11,9.55,2.01,4.0625,0.875,7.75,-0.2220459,-0.16357422,-0.59802246,-0.75250244
1b,4,None,29403509,1779733375448,6.780561,-2.7470605,4.8287163,44.035038,34.30111,-4.3962717,-125.56815,-72.139755,230.58018,0.0
1b,3,None,3200580,1779733375463,12.277775,-10.028023,1.4979069,88.45577,-5.3403006,42.949223,-109.19022,-57.875397,344.84637,0.0
1b,1,None,3400603,1779733375480,-0.35,9.56,2.05,3.1875,-1.25,6.8125,-0.22113037,-0.16448975,-0.5982666,-0.7524414
1b,1,None,3400624,1779733375481,-0.31,9.44,2.02,2.5625,-0.9375,6.5625,-0.22033691,-0.16534424,-0.5984497,-0.75231934
1b,2,None,442616,1779733375483,-9.043128,-1.387502,0.3900301,-3.433362,-4.46376,-3.6423812,29.813568,56.957897,215.34015,0.0
1b,1,None,3400645,1779733375505,-0.25,9.36,2.15,2.375,-0.5625,7.75,-0.21899414,-0.16662598,-0.59869385,-0.75219727
1b,4,None,29403569,1779733375508,4.8184466,-0.51455694,5.8504515,106.685036,12.951112,-3.486272,-125.425255,-72.16857,230.47871,0.0
1b,3,None,3200640,1779733375521,10.200805,-15.141484,1.5074784,77.67577,1.8696995,35.879223,-109.07581,-57.82217,344.76996,0.0
1b,1,None,3400659,1779733375538,-0.14,9.38,2.14,2.375,0.1875,7.75,-0.21844482,-0.16705322,-0.5987549,-0.7522583
1b,2,None,442675,1779733375542,-9.11252,-1.5262858,0.34695926,-3.5033622,-5.3037596,-2.592381,29.77486,57.024555,215.30779,0.0
1b,1,None,3400685,1779733375565,-0.17,9.43,2.12,3.0625,0.25,7.1875,-0.21697998,-0.16827393,-0.59906006,-0.75213623
1b,1,None,3400700,1779733375567,-0.15,9.58,1.98,3.25,0.25,6.8125,-0.2164917,-0.16864014,-0.59924316,-0.7520752
1b,4,None,29403629,1779733375569,6.2732825,-1.1007985,5.8337016,129.43504,30.45111,-55.14627,-125.28339,-72.21572,230.38747,0.0
1b,3,None,3200700,1779733375581,11.600606,-8.544474,0.44506502,-17.244223,-5.4103007,72.97922,-108.97348,-57.788727,344.67477,0.0
1b,1,None,3400725,1779733375596,-0.2,9.42,2.06,3.5625,-0.5,6.0625,-0.21520996,-0.16973877,-0.5997925,-0.75177
1b,2,None,442735,1779733375602,-9.167555,-1.5502139,0.6723831,-6.233362,-2.6437597,-1.122381,29.730944,57.091362,215.27232,0.0
1b,1,None,3400746,1779733375625,-0.11,9.42,2.1,3.75,-0.625,5.8125,-0.21447754,-0.17047119,-0.60009766,-0.7515259
1b,1,None,3400767,1779733375626,-0.04,9.54,2.04,3.9375,-0.0625,5.4375,-0.21343994,-0.17095947,-0.60058594,-0.7513428
1b,4,None,29403689,1779733375628,6.139284,-6.2166533,3.321238,109.48504,8.611112,-38.62627,-125.10351,-72.21973,230.25421,0.0
1b,3,None,3200760,1779733375639,10.949758,-13.138693,1.0408778,23.985777,-23.400301,67.659225,-108.88001,-57.725742,344.60284,0.0
1b,1,None,3400786,1779733375655,-0.22,9.51,2.03,4.4375,1.1875,5.9375,-0.21252441,-0.17156982,-0.6010742,-0.75109863
1b,2,None,442795,1779733375664,-9.201054,-1.6196059,0.53599226,-3.923362,-4.9537597,-2.802381,29.687487,57.157894,215.23604,0.0
1b,1,None,3400809,1779733375686,-0.14,9.49,1.95,4.3125,1.5,6.375,-0.21038818,-0.17114258,-0.6018677,-0.75109863
1b,1,None,3400832,1779733375689,-0.03,9.41,1.94,4.25,0.875,6.0,-0.20941162,-0.17175293,-0.60235596,-0.7508545
1b,4,None,29403749,1779733375689,4.6557345,-4.8527446,2.931208,8.89504,-5.948889,7.7837276,-124.94582,-72.20938,230.10709,0.0
1b,3,None,3200820,1779733375699,9.420744,-12.238991,0.009571291,19.085777,-1.8403006,58.699223,-108.78758,-57.657192,344.52713,0.0
1b,1,None,3400846,1779733375717,-0.11,9.46,1.9,3.875,1.4375,5.8125,-0.20843506,-0.17230225,-0.60284424,-0.75061035
1b,2,None,442855,1779733375723,-9.232161,-1.5071431,0.52881384,-7.843362,-8.24376,0.13761902,29.645248,57.222954,215.20209,0.0
1b,1,None,3400864,1779733375747,0.1,9.5,1.8,3.6875,2.375,5.3125,-0.2074585,-0.17266846,-0.60339355,-0.75042725
1b,1,None,3400890,1779733375748,-0.02,9.46,1.84,3.3125,1.875,4.25,-0.20666504,-0.17297363,-0.6038208,-0.7501831
1b,4,None,29403809,1779733375749,3.6076784,1.9763714,5.2953167,16.105042,24.711113,20.103727,-124.84365,-72.24109,230.01175,0.0
1b,3,None,3200880,1779733375764,5.5994067,-9.953846,1.2418749,-21.514223,9.7097,79.769226,-108.70041,-57.58915,344.44064,0.0
1b,1,None,3400909,1779733375782,-0.16,9.38,1.95,3.0625,1.6875,3.875,-0.20635986,-0.17303467,-0.60406494,-0.75006104
1b,2,None,442916,1779733375784,-9.081413,-1.7129259,0.5479564,-9.103362,-1.1737598,2.587619,29.600962,57.289543,215.16782,0.0
1b,1,None,3400931,1779733375807,-0.05,9.46,1.96,3.1875,2.0625,4.125,-0.20751953,-0.17523193,-0.604126,-0.7491455
1b,1,None,3400948,1779733375810,0.02,9.53,1.93,3.625,2.125,4.75,-0.20672607,-0.17547607,-0.60461426,-0.7489624
1b,4,None,29403869,1779733375811,5.292226,2.785145,4.6492543,24.36504,47.181114,-38.136272,-124.77061,-72.3011,229.94847,0.0
1b,3,None,3200940,1779733375823,12.959729,-13.028623,0.98105735,-44.054222,-50.000298,82.70922,-108.63653,-57.52559,344.37766,0.0
1b,1,None,3400964,1779733375839,0.01,9.6,1.89,3.9375,1.4375,4.8125,-0.20495605,-0.1751709,-0.60528564,-0.7489624
1b,2,None,442975,1779733375843,-9.210626,-1.5502139,0.59581286,-8.893362,-5.44376,1.397619,29.557484,57.355072,215.13356,0.0
1b,1,None,3400988,1779733375866,0.09,9.49,1.86,3.6875,-0.375,4.25,-0.20428467,-0.17572021,-0.6057129,-0.7486572
1b,1,None,3401009,1779733375868,0.02,9.51,1.86,3.25,-1.0,4.4375,-0.20385742,-0.1763916,-0.60601807,-0.7484131
1b,4,None,29403929,1779733375869,3.9737804,-1.4884359,2.2325034,42.285038,42.56111,-40.866272,-124.61048,-72.3401,229.80875,0.0
1b,3,None,3201000,1779733375881,9.609777,-11.384753,-2.5435705,-26.274223,-58.1203,92.57922,-108.62414,-57.416454,344.36423,0.0
1b,1,None,3401026,1779733375897,0.0,9.47,1.86,3.4375,-0.5,4.125,-0.2033081,-0.17687988,-0.6063843,-0.7481079
1b,2,None,443036,1779733375903,-9.086199,-1.5071431,0.6867401,-3.573362,-2.0137596,-3.922381,29.512808,57.422398,215.09615,0.0
1b,1,None,3401047,1779733375927,-0.04,9.54,1.88,3.375,0.375,4.375,-0.20275879,-0.17736816,-0.6067505,-0.74786377
1b,1,None,3401068,1779733375927,-0.01,9.51,1.85,3.3125,1.75,4.6875,-0.20379639,-0.17913818,-0.6067505,-0.74713135
1b,3,None,3201060,1779733375938,11.263218,-14.27289,-0.86141616,-16.824223,-52.030304,75.42922,-108.574615,-57.330204,344.3223,0.0
1b,1,None,3401085,1779733375955,0.14,9.49,1.76,3.875,2.5,4.0,-0.2029419,-0.17938232,-0.6072998,-0.7468872
1b,1,None,3401104,1779733375956,-0.05,9.46,1.93,3.75,1.75,4.75,-0.20251465,-0.1795044,-0.6074829,-0.7468262
1b,2,None,443095,1779733375962,-9.012021,-1.6004632,1.2634103,-7.913362,-1.8037597,-4.622381,29.453444,57.488636,215.04752,0.0
1b,1,None,3401130,1779733375986,0.13,9.3,1.88,3.625,1.25,4.875,-0.20123291,-0.18011475,-0.60809326,-0.746521
1b,3,None,3201120,1779733375998,8.999608,-14.753847,-2.6464617,19.085777,-64.9103,69.549225,-108.552185,-57.23004,344.3165,0.0
1b,1,None,3401149,1779733376015,0.34,9.52,1.78,3.5,1.0625,4.5625,-0.20050049,-0.18054199,-0.60839844,-0.7463379
1b,1,None,3401164,1779733376016,0.37,9.5,1.66,3.375,-0.125,3.125,-0.2000122,-0.18060303,-0.6086426,-0.74627686
1b,4,None,29403989,1779733376018,4.215455,-0.5241285,0.021535404,43.47504,56.63111,-12.796272,-124.489624,-72.40739,229.70386,0.0
1b,2,None,443156,1779733376023,-9.059877,-1.7057474,0.4953143,-2.5233622,-4.3937597,-6.3723807,29.40667,57.55576,215.00735,0.0
1b,1,None,3401192,1779733376045,0.13,9.54,1.61,2.25,-3.9375,1.25,-0.2000122,-0.18157959,-0.6090698,-0.74572754
1b,3,None,3201180,1779733376057,8.451652,-9.164214,3.7758741,-28.024223,-87.3803,78.08922,-108.50588,-57.181934,344.28027,0.0
1b,1,None,3401206,1779733376075,0.21,9.52,1.58,1.5,-4.3125,0.5,-0.20031738,-0.18218994,-0.60931396,-0.7453003
1b,4,None,29404182,1779733376078,3.7201412,-1.2826532,4.85743,25.06504,68.53111,-5.026272,-124.19325,-72.49671,229.43155,0.0
1b,2,None,443215,1779733376082,-9.356588,-1.7631752,1.0456635,-4.203362,-1.5937599,-10.92238,29.348507,57.62356,214.95755,0.0
1b,1,None,3401233,1779733376105,0.21,9.62,1.69,1.0625,-5.1875,-0.125,-0.20080566,-0.18286133,-0.609375,-0.7449341
1b,1,None,3401250,1779733376106,0.08,9.47,1.8,0.75,-6.125,0.3125,-0.20147705,-0.18359375,-0.60931396,-0.7446289
1b,3,None,3201240,1779733376123,10.279768,-10.559229,-2.3042881,-14.304223,-86.8203,81.16922,-108.49771,-57.075085,344.27994,0.0
1b,1,None,3401266,1779733376140,0.12,9.48,1.82,1.375,-5.0,0.9375,-0.20220947,-0.18444824,-0.6092529,-0.7442627
1b,4,None,29404201,1779733376140,4.05035,-0.43080842,1.2275181,24.99504,58.31111,-15.106272,-124.03946,-72.549446,229.289,0.0
1b,2,None,443275,1779733376142,-8.861274,-2.4834146,0.46181476,-3.643362,-2.8537598,-10.572382,29.286512,57.691086,214.90427,0.0
1b,1,None,3401295,1779733376165,0.02,9.62,1.59,1.125,-4.4375,1.4375,-0.20257568,-0.18511963,-0.60931396,-0.7439575
1b,1,None,3401305,1779733376166,0.0,9.55,1.65,1.1875,-3.5625,1.375,-0.20281982,-0.18554688,-0.6094971,-0.7435913
1b,3,None,3201300,1779733376180,7.9180517,-8.989537,-1.9501505,-0.024223626,-86.2603,77.94922,-108.489525,-56.968483,344.28387,0.0
1b,1,None,3401326,1779733376197,0.02,9.59,1.58,0.6875,-0.0625,1.6875,-0.20275879,-0.18566895,-0.6097412,-0.7434082
1b,4,None,29404259,1779733376198,3.9953158,-3.249553,1.416551,1.4050398,5.181112,-53.816273,-123.89891,-72.555565,229.15808,0.0
1b,2,None,443335,1779733376203,-8.983308,-2.33506,0.6867401,-0.5633621,4.42624,-5.322381,29.228924,57.759624,214.85527,0.0
1b,1,None,3401350,1779733376225,0.26,9.47,1.68,0.875,1.625,0.9375,-0.20245361,-0.18566895,-0.6099243,-0.74328613
1b,1,None,3401372,1779733376225,0.2,9.47,1.74,-0.25,0.5625,0.8125,-0.20172119,-0.18511963,-0.61016846,-0.74346924
1b,3,None,3201360,1779733376239,9.547564,-11.033009,-2.7661028,3.2657766,-48.600304,75.98922,-108.472725,-56.86426,344.27493,0.0
1b,1,None,3401393,1779733376256,0.24,9.47,1.78,-0.375,0.9375,0.4375,-0.20166016,-0.1850586,-0.61016846,-0.74346924
1b,4,None,29404319,1779733376258,7.184948,4.859722,-3.7328033,-79.44496,-104.43889,-129.41628,-124.30997,-72.61492,229.54047,0.0
1b,2,None,443395,1779733376262,-8.846916,-2.492986,0.7369894,-4.133362,-3.7637596,0.97761893,29.166763,57.824074,214.80373,0.0
1b,1,None,3401412,1779733376285,0.24,9.44,1.78,-1.0,-0.25,0.125,-0.20172119,-0.1850586,-0.6101074,-0.7435303
1b,1,None,3401433,1779733376286,0.13,9.56,1.67,-1.0,0.25,-0.25,-0.20172119,-0.18499756,-0.6100464,-0.7435913
1b,3,None,3201420,1779733376299,8.62872,-12.777376,-5.852844,39.665775,-116.2203,82.49922,-108.53218,-56.75146,344.35233,0.0
1b,1,None,3401447,1779733376315,0.33,9.57,1.63,-1.5,0.4375,-1.125,-0.2019043,-0.18487549,-0.6099243,-0.74365234
1b,4,None,29404379,1779733376318,5.888038,-1.1151556,-2.3377876,-73.07496,-169.9589,-118.07628,-124.75379,-72.59876,229.96124,0.0
1b,2,None,443456,1779733376322,-9.141234,-2.1938832,0.76331043,-6.6533623,-1.3137599,5.597619,29.112022,57.888996,214.76013,0.0
1b,1,None,3401472,1779733376346,0.22,9.54,1.75,-2.125,-0.1875,-2.1875,-0.20245361,-0.18481445,-0.6097412,-0.7437134
1b,1,None,3401491,1779733376349,0.11,9.51,1.67,-2.3125,-0.8125,-2.5,-0.20300293,-0.18457031,-0.6095581,-0.7437744
1b,3,None,3201480,1779733376358,3.5176508,-7.826627,0.023928225,253.30577,-179.3603,90.689224,-108.45969,-56.64623,344.39276,0.0
1b,1,None,3401511,1779733376377,0.09,9.47,1.72,-1.75,0.0625,-1.6875,-0.20373535,-0.18450928,-0.609375,-0.7437134
1b,4,None,29404439,1779733376379,2.2533407,-3.2878387,8.109276,-72.23496,-58.72889,-40.16627,-124.74625,-72.60838,229.9374,0.0
1b,2,None,443515,1779733376383,-9.126877,-2.375738,0.95952183,-8.053362,0.08624017,8.607618,29.052183,57.952972,214.71321,0.0
1b,1,None,3401531,1779733376406,0.08,9.51,1.75,-1.6875,0.1875,-0.375,-0.20397949,-0.18432617,-0.6091919,-0.74383545
1b,1,None,3401549,1779733376408,0.16,9.43,1.76,-1.75,0.0,0.0625,-0.20404053,-0.1842041,-0.6090698,-0.7439575
1b,3,None,3201541,1779733376423,1.8905314,-8.309976,5.630312,256.8758,-129.66031,117.77922,-108.34487,-56.573097,344.38828,0.0
1b,1,None,3401574,1779733376439,0.15,9.42,1.79,-1.875,-1.1875,-0.125,-0.20422363,-0.18426514,-0.6088257,-0.7440796
1b,2,None,443576,1779733376444,-8.961772,-2.0957775,0.6580263,-7.283362,1.6262403,7.837619,29.001257,58.01863,214.6736,0.0
1b,1,None,3401598,1779733376468,0.19,9.68,1.75,-1.5,-1.3125,-0.875,-0.20471191,-0.18426514,-0.6085205,-0.74420166
1b,4,None,29404500,1779733376469,2.0978074,-4.3000026,9.650253,8.68504,-8.608889,-7.616272,-124.643684,-72.61697,229.8436,0.0
1b,3,None,3201600,1779733376484,5.278768,-12.794126,7.771888,-39.084225,-60.0103,104.61922,-108.29614,-56.512974,344.34085,0.0
1b,1,None,3401615,1779733376500,0.26,9.49,1.7,-1.6875,-0.6875,-3.25,-0.20526123,-0.18389893,-0.6084595,-0.74420166
1b,2,None,443635,1779733376505,-9.12927,-1.8517096,0.5407779,-12.9533615,3.30624,8.117619,28.955727,58.085228,214.64041,0.0
1b,1,None,3401647,1779733376527,0.23,9.45,1.75,-2.25,-1.75,-7.125,-0.20629883,-0.18341064,-0.60839844,-0.7440796
1b,1,None,3401656,1779733376530,0.17,9.36,1.85,-2.5625,-2.4375,-9.0625,-0.20770264,-0.18267822,-0.60827637,-0.7439575
1b,4,None,29404559,1779733376530,0.0040874886,-0.33270228,4.87418,50.96504,44.52111,-13.496271,-124.50703,-72.64431,229.72713,0.0
1b,3,None,3201660,1779733376543,7.4107733,-9.231213,6.623333,-109.15423,-0.86030054,73.259224,-108.242485,-56.481426,344.26004,0.0
1b,1,None,3401676,1779733376557,-0.07,9.51,1.66,-2.6875,-0.5625,-9.0625,-0.20904541,-0.18182373,-0.6081543,-0.7438965
1b,1,None,3401697,1779733376559,-0.01,9.54,1.92,-2.9375,0.3125,-8.625,-0.21026611,-0.18078613,-0.60809326,-0.74383545
1b,2,None,443696,1779733376564,-9.153198,-1.6889976,0.4235296,-10.153362,5.1962404,2.3076189,28.91367,58.153618,214.60854,0.0
1b,1,None,3401719,1779733376587,0.02,9.54,1.99,-2.75,-2.5625,-7.4375,-0.21160889,-0.18005371,-0.60791016,-0.7437744
1b,4,None,29404649,1779733376589,-3.3195431,-0.9811574,1.3854443,61.95504,-1.4688883,-37.366272,-124.46313,-72.64631,229.7082,0.0
1b,3,None,3201720,1779733376599,6.4416804,-10.063916,4.5918264,-32.504223,32.9497,66.95922,-108.14548,-56.44366,344.15964,0.0
1b,1,None,3401741,1779733376616,-0.28,9.48,1.84,-2.3125,-4.9375,-4.9375,-0.2130127,-0.1796875,-0.60772705,-0.74365234
1b,1,None,3401758,1779733376619,0.09,9.36,1.88,-1.625,-5.0625,-3.25,-0.21417236,-0.17974854,-0.60754395,-0.74346924
1b,2,None,443755,1779733376624,-9.246518,-1.7033545,0.4139583,-16.103363,14.786241,-6.092381,28.868109,58.22631,214.57492,0.0
1b,1,None,3401783,1779733376647,-0.03,9.36,1.84,-2.625,-7.6875,-2.625,-0.215271,-0.18023682,-0.6071167,-0.7434082
1b,4,None,29404709,1779733376650,-3.2884367,-0.7155542,1.2442678,63.35504,-8.398888,-36.73627,-124.43064,-72.64775,229.70122,0.0
1b,3,None,3201780,1779733376658,3.2376907,-10.52573,3.0675986,-50.914223,19.0197,65.62922,-108.07348,-56.38818,344.0774,0.0
1b,1,None,3401798,1779733376677,-0.35,9.57,1.94,-1.5625,-14.0,-1.4375,-0.21697998,-0.18121338,-0.60650635,-0.743103
1b,1,None,3401818,1779733376680,-0.12,9.55,1.65,0.0,-21.875,-0.6875,-0.21929932,-0.18353271,-0.60595703,-0.7423096
1b,2,None,443815,1779733376684,-9.323088,-1.1003633,-0.8279166,-13.723362,13.17624,-13.16238,28.848326,58.29984,214.56122,0.0
1b,1,None,3401844,1779733376706,0.23,9.74,1.73,-1.1875,-24.375,0.4375,-0.22174072,-0.18640137,-0.6050415,-0.7416382
1b,4,None,29404769,1779733376710,-1.1253247,-0.42123687,1.4883357,-54.31496,11.901112,-2.506272,-124.36806,-72.65277,229.62251,0.0
1b,3,None,3201840,1779733376718,3.8071823,-6.18515,2.900101,48.695778,17.0597,61.77922,-107.9579,-56.350132,343.9885,0.0
1b,1,None,3401858,1779733376737,-0.43,9.88,1.43,-2.8125,-28.5625,2.0625,-0.2244873,-0.19000244,-0.6036377,-0.74102783
1b,2,None,443875,1779733376751,-8.956986,-2.1125274,0.55034924,-0.07336187,7.22624,-20.232382,28.788254,58.372005,214.50749,0.0
1b,1,None,3401883,1779733376767,-0.34,9.79,1.45,-3.625,-21.875,4.75,-0.22662354,-0.19335938,-0.60217285,-0.74072266
1b,1,None,3401901,1779733376770,-0.44,9.79,1.72,-5.8125,-11.875,9.1875,-0.22729492,-0.19573975,-0.600647,-0.74108887
1b,4,None,29404829,1779733376770,1.2890333,0.062113635,-2.9862425,37.45504,2.2411118,-2.296272,-124.57219,-72.62321,229.82974,0.0
1b,3,None,3201900,1779733376784,5.065807,-14.057536,4.1706896,269.47577,-18.9203,65.769226,-107.79136,-56.29161,343.9278,0.0
1b,1,None,3401925,1779733376800,0.05,9.54,1.88,-8.0625,-2.75,10.5625,-0.22662354,-0.19763184,-0.59887695,-0.74224854
1b,2,None,443935,1779733376804,-8.691383,-2.7801247,0.02871387,9.5866375,13.52624,-16.732382,28.731861,58.445705,214.45512,0.0
1b,1,None,3401948,1779733376827,0.14,9.4,1.95,-8.5,-2.125,9.875,-0.22583008,-0.1984253,-0.5974121,-0.74346924
1b,1,None,3401966,1779733376829,0.44,9.48,1.97,-7.5625,3.8125,5.3125,-0.22503662,-0.1984253,-0.5963135,-0.7445679
1b,4,None,29404889,1779733376830,-4.4082775,-6.3099737,-4.6971107,185.43504,-58.168884,44.183727,-124.53915,-72.54205,229.8624,0.0
1b,3,None,3201960,1779733376838,4.6949196,-9.298212,6.9870424,122.12577,-16.4703,97.33922,-107.66621,-56.24432,343.85645,0.0
1b,1,None,3401990,1779733376862,0.57,9.3,2.15,-7.125,5.8125,3.375,-0.22442627,-0.19769287,-0.59558105,-0.74554443
1b,2,None,443996,1779733376864,-8.744025,-3.1605835,1.1174482,-8.333363,10.44624,-11.83238,28.647432,58.51325,214.38466,0.0
1b,1,None,3402006,1779733376887,0.53,9.39,2.11,-8.0625,-1.125,-3.5625,-0.22497559,-0.19702148,-0.59472656,-0.74627686
1b,1,None,3402029,1779733376889,0.22,9.39,2.2,-8.5625,-4.3125,-5.1875,-0.22650146,-0.19683838,-0.5935669,-0.7467041
1b,4,None,29404949,1779733376891,-5.3366923,-5.438986,-1.0528419,46.765038,-46.12889,180.33372,-124.4103,-72.44454,229.74838,0.0
1b,3,None,3202020,1779733376898,4.3623176,-7.29542,8.427522,184.00577,24.759699,62.199223,-107.507645,-56.221363,343.76984,0.0
1b,1,None,3402046,1779733376919,-0.25,9.46,2.07,-8.375,-5.625,-5.5,-0.22814941,-0.19665527,-0.59246826,-0.74713135
1b,2,None,444055,1779733376923,-8.23914,-3.7181113,-0.404387,-17.013363,10.93624,-5.532381,28.578072,58.58372,214.33061,0.0
1b,1,None,3402066,1779733376948,-0.08,9.55,1.92,-8.4375,-3.5625,-4.9375,-0.22949219,-0.1963501,-0.59143066,-0.74768066
1b,1,None,3402094,1779733376948,0.01,9.54,2.0,-8.9375,-2.9375,-4.6875,-0.23071289,-0.19592285,-0.59033203,-0.748291
1b,4,None,29405009,1779733376948,-1.7929223,5.022434,1.0480564,-12.3149605,-59.988884,95.42372,-124.45295,-72.431465,229.78445,0.0
1b,3,None,3202080,1779733376957,3.663613,-6.3837543,9.79143,49.885777,51.6397,31.329222,-107.391014,-56.21434,343.676,0.0
1b,1,None,3402106,1779733376976,-0.1,9.44,2.26,-8.0,-1.25,-4.4375,-0.23187256,-0.19525146,-0.5894165,-0.7487793
1b,2,None,444116,1779733376982,-8.911523,-2.6389484,-0.13160524,5.3166375,7.9262404,-0.70238113,28.531706,58.653473,214.29002,0.0
1b,1,None,3402126,1779733377005,-0.15,9.39,2.32,-6.8125,1.0,-4.0,-0.23260498,-0.19445801,-0.5886841,-0.74938965
1b,1,None,3402146,1779733377006,-0.09,9.36,2.31,-5.5625,4.8125,-3.5625,-0.23297119,-0.1932373,-0.5881958,-0.74993896
1b,4,None,29405069,1779733377009,1.8537393,3.9360933,5.2019963,31.085037,27.301111,59.933727,-124.345,-72.452446,229.68594,0.0
1b,3,None,3202140,1779733377017,2.558129,-5.280663,8.051848,38.825775,74.8797,19.079222,-107.26935,-56.212635,343.57114,0.0
1b,1,None,3402169,1779733377035,-0.16,9.38,2.26,-4.375,8.0625,-2.6875,-0.23291016,-0.19165039,-0.5880127,-0.7504883
1b,2,None,444175,1779733377042,-8.70574,-3.4860075,0.117248304,16.586637,-0.26375985,3.497619,28.4723,58.718105,214.23486,0.0
1b,1,None,3402192,1779733377065,-0.17,9.4,2.11,-4.5625,10.5,-2.1875,-0.23248291,-0.18981934,-0.58807373,-0.7510376
1b,1,None,3402207,1779733377066,-0.2,9.43,2.08,-5.125,9.9375,-1.0625,-0.2319336,-0.18811035,-0.5880127,-0.751709
1b,3,None,3202200,1779733377086,0.5577292,-6.9077826,5.5537415,-39.78422,70.0497,48.969223,-107.174736,-56.18452,343.46518,0.0
1b,1,None,3402234,1779733377101,-0.06,9.58,2.24,-5.875,10.375,0.125,-0.23132324,-0.18640137,-0.5878906,-0.7523804
1b,4,None,29405129,1779733377102,5.337689,0.22243279,6.443871,0.2150402,176.5411,27.033728,-124.07533,-72.50694,229.41191,0.0
1b,2,None,444236,1779733377103,-8.334852,-3.5386498,-0.3684947,7.206638,1.1362402,6.927619,28.416483,58.78362,214.1862,0.0
1b,1,None,3402249,1779733377125,-0.08,9.67,2.5,-4.875,10.875,1.3125,-0.23028564,-0.18475342,-0.5877075,-0.75323486
1b,1,None,3402274,1779733377126,0.01,9.29,2.47,-3.3125,10.75,2.625,-0.22906494,-0.18353271,-0.58758545,-0.7540283
1b,3,None,3202260,1779733377145,1.342575,-9.286248,-2.376073,-142.26422,22.0297,68.28922,-107.19456,-56.09254,343.43234,0.0
1b,1,None,3402298,1779733377162,0.01,9.23,2.48,-2.0625,10.1875,3.5625,-0.22766113,-0.18237305,-0.58758545,-0.75476074
1b,4,None,29405189,1779733377163,13.8226385,-2.024428,5.2522454,-79.72496,256.90112,47.05373,-123.726326,-72.57566,229.02736,0.0
1b,2,None,444295,1779733377163,-9.514514,-2.3207028,0.016749758,0.06663799,-1.6637598,17.847618,28.379713,58.847332,214.15742,0.0
1b,1,None,3402314,1779733377185,-0.19,9.51,2.18,-2.3125,7.0625,4.5,-0.22576904,-0.18151855,-0.58740234,-0.75567627
1b,3,None,3202320,1779733377201,5.8674026,-8.917753,0.70348984,-491.28424,-91.2303,44.839222,-107.33109,-56.023376,343.41763,0.0
1b,1,None,3402334,1779733377220,-0.05,9.54,2.29,-2.1875,6.5625,5.5,-0.22515869,-0.18133545,-0.5873413,-0.75598145
1b,1,None,3402355,1779733377220,-0.09,9.45,2.43,-1.5,5.25,6.5,-0.2232666,-0.18109131,-0.58709717,-0.7567749
1b,4,None,29405279,1779733377220,13.738891,2.8090732,1.9286151,-220.00496,218.6811,-20.146273,-123.61114,-72.68117,228.82626,0.0
1b,2,None,444355,1779733377222,-8.866059,-2.682019,-0.050249275,-15.333363,-4.3937597,23.937618,28.3324,58.908867,214.12492,0.0
1b,1,None,3402378,1779733377245,0.14,9.53,2.3,-1.0,2.875,7.9375,-0.2220459,-0.18157959,-0.58691406,-0.7571411
1b,3,None,3202380,1779733377259,7.6763763,4.125523,11.353944,-423.38422,-118.4603,-180.07077,-107.521355,-56.097683,343.4854,0.0
1b,1,None,3402396,1779733377277,0.01,9.54,2.19,-0.625,-1.125,8.5625,-0.22113037,-0.18243408,-0.5866699,-0.75738525
1b,1,None,3402416,1779733377277,0.18,9.49,2.27,-0.25,1.0625,8.25,-0.22009277,-0.18310547,-0.58654785,-0.7576294
1b,4,None,29405339,1779733377279,0.70039886,8.611669,0.61016977,-96.80496,141.0511,-174.98628,-123.69477,-72.79667,228.87172,0.0
1b,2,None,444416,1779733377283,-9.105342,-2.2824178,0.09810573,-7.003362,-6.21376,23.097618,28.291975,58.970104,214.09552,0.0
1b,1,None,3402444,1779733377305,0.2,9.45,2.3,-0.125,1.25,7.125,-0.21899414,-0.18365479,-0.5864258,-0.7579346
1b,3,None,3202440,1779733377318,12.648663,-13.5694,8.054241,69.62577,-7.580301,-149.76077,-107.44178,-56.140213,343.4497,0.0
1b,1,None,3402461,1779733377335,0.48,9.39,2.33,0.5,-0.75,4.0,-0.21838379,-0.18414307,-0.5862427,-0.75805664
1b,4,None,29405399,1779733377339,-2.7213376,-1.5745775,-3.5533416,-32.47496,67.48111,-190.87628,-123.855385,-72.81308,229.01944,0.0
1b,2,None,444475,1779733377342,-8.904345,-2.0455282,-0.059820566,0.6966381,-2.2937598,14.627619,28.256664,59.03425,214.06715,0.0
1b,1,None,3402481,1779733377367,-0.27,9.25,2.34,1.375,3.5,2.0625,-0.21783447,-0.18426514,-0.5863037,-0.7581787
1b,1,None,3402500,1779733377369,0.25,9.28,2.45,0.625,0.0625,-1.25,-0.21795654,-0.18414307,-0.58654785,-0.7579956
1b,3,None,3202500,1779733377385,7.934801,-16.184755,2.0195422,-3.8042235,114.9197,-106.36078,-107.33362,-56.14281,343.34366,0.0
1b,1,None,3402517,1779733377407,0.42,9.25,2.35,0.6875,-1.625,-5.875,-0.21862793,-0.18377686,-0.586792,-0.7576904
1b,4,None,29405459,1779733377408,-0.0940183,-3.5725844,-4.0965123,9.31504,-76.29889,-105.126274,-124.05738,-72.756584,229.22806,0.0
1b,2,None,444536,1779733377408,-9.004843,-2.210633,-0.15792629,-3.433362,-3.6237597,11.057619,28.216686,59.09861,214.03534,0.0
1b,1,None,3402548,1779733377429,0.06,9.38,2.41,0.625,-2.4375,-8.75,-0.21990967,-0.18328857,-0.58703613,-0.7572632
1b,1,None,3402557,1779733377429,-0.09,9.24,2.33,1.1875,-2.1875,-11.0625,-0.22143555,-0.18255615,-0.58740234,-0.75671387
1b,3,None,3202560,1779733377444,8.633506,-13.263119,-7.1066833,-89.48423,150.6897,-47.21078,-107.34367,-56.106243,343.30084,0.0
1b,1,None,3402589,1779733377459,-0.14,9.3,2.34,1.4375,-0.75,-11.1875,-0.22296143,-0.18170166,-0.5878906,-0.7561035
1b,4,None,29405519,1779733377459,-1.9125634,-0.80648124,2.9862425,44.80504,-161.48889,-26.376272,-124.13268,-72.735634,229.33028,0.0
1b,1,None,3402598,1779733377459,-0.2,9.33,2.28,1.375,0.75,-10.125,-0.22424316,-0.18066406,-0.5883789,-0.7555542
1b,2,None,444595,1779733377464,-9.059877,-1.8899947,-0.026321048,-3.153362,-2.0137596,5.807619,28.178183,59.16427,214.00398,0.0
1b,1,None,3402621,1779733377487,-0.23,9.48,2.29,1.125,1.75,-8.1875,-0.22521973,-0.1795044,-0.5889282,-0.75512695
1b,3,None,3202620,1779733377500,8.05205,-13.260726,-3.522235,-139.60423,156.7797,-34.540775,-107.30854,-56.059067,343.2041,0.0
1b,1,None,3402644,1779733377518,-0.37,9.46,2.17,0.625,-0.0625,-5.5625,-0.22619629,-0.17852783,-0.5894165,-0.7546997
1b,1,None,3402658,1779733377518,-0.31,9.51,2.29,0.5,-0.125,-2.75,-0.22686768,-0.17791748,-0.5897217,-0.75439453
1b,4,None,29405579,1779733377519,-4.3532424,-0.06949206,6.9320073,254.31503,-134.04889,-15.736271,-124.113434,-72.721855,229.40916,0.0
1b,2,None,444656,1779733377524,-9.134055,-2.0311713,0.033499517,-3.363362,-4.04376,1.887619,28.133644,59.22979,213.96669,0.0
1b,1,None,3402683,1779733377549,-0.26,9.42,2.22,0.4375,0.25,0.0625,-0.22711182,-0.1776123,-0.5899048,-0.75427246
1b,3,None,3202680,1779733377558,8.92543,-12.389739,-6.3577294,-238.72423,175.3297,34.899223,-107.34485,-55.99805,343.13043,0.0
1b,1,None,3402703,1779733377577,-0.2,9.43,2.26,0.625,-0.6875,2.375,-0.22705078,-0.17767334,-0.59002686,-0.7541504
1b,1,None,3402718,1779733377579,-0.24,9.46,2.28,0.25,-2.0,4.125,-0.22686768,-0.17810059,-0.5899658,-0.7541504
1b,4,None,29405639,1779733377580,-3.4272203,-0.03359949,5.3982077,310.10504,-41.858887,-35.05627,-124.00144,-72.73168,229.41129,0.0
1b,2,None,444715,1779733377583,-9.105342,-2.090992,0.3062813,-3.643362,-3.5537596,-1.332381,28.081501,59.295467,213.92244,0.0
1b,1,None,3402743,1779733377607,-0.12,9.49,2.23,0.375,-2.1875,5.75,-0.22650146,-0.17877197,-0.58984375,-0.7542114
1b,3,None,3202740,1779733377618,10.452051,-6.223435,-9.88475,-123.50423,100.2197,62.129223,-107.438614,-55.975445,343.15015,0.0
1b,1,None,3402758,1779733377636,-0.04,9.43,2.31,0.4375,-2.25,6.375,-0.22595215,-0.17962646,-0.5895996,-0.7543335
1b,1,None,3402778,1779733377638,0.09,9.39,2.31,0.3125,-3.375,6.1875,-0.22546387,-0.18060303,-0.58929443,-0.7545166
1b,4,None,29405699,1779733377640,-5.8391857,-2.8906298,1.8400806,343.42505,12.951112,-12.726273,-123.82585,-72.72301,229.3578,0.0
1b,2,None,444775,1779733377643,-9.275232,-1.9474225,0.14117654,-4.413362,-1.4537598,-6.2323813,28.03306,59.362965,213.88101,0.0
1b,1,None,3402801,1779733377667,0.05,9.39,2.28,0.4375,-5.0,5.4375,-0.22515869,-0.1817627,-0.5889282,-0.75457764
1b,3,None,3202800,1779733377686,11.217753,-11.561822,-6.5347986,-120.91423,57.939697,70.31922,-107.503944,-55.901253,343.1544,0.0
1b,1,None,3402818,1779733377701,0.1,9.48,2.2,0.25,-4.8125,4.1875,-0.22509766,-0.1828003,-0.58862305,-0.75457764
1b,1,None,3402838,1779733377701,0.13,9.44,2.25,0.375,-3.875,2.5,-0.22515869,-0.18365479,-0.58843994,-0.7545166
1b,4,None,29405759,1779733377701,-3.039583,-3.7927241,-0.8733803,164.29504,62.791115,4.7037277,-123.66376,-72.6931,229.25214,0.0
1b,2,None,444835,1779733377704,-8.992879,-2.239347,0.08135597,-1.8233619,-0.1937598,-11.762381,27.97748,59.43163,213.83185,0.0
1b,1,None,3402863,1779733377726,0.12,9.45,2.28,0.9375,-2.9375,0.0,-0.22540283,-0.1842041,-0.5883789,-0.75439453
1b,3,None,3202860,1779733377743,12.172491,-8.116158,-4.7425747,-151.71423,35.329697,87.81922,-107.62004,-55.856285,343.19492,0.0
1b,1,None,3402884,1779733377761,-0.01,9.37,2.3,1.3125,-3.0625,-0.3125,-0.22564697,-0.18463135,-0.58843994,-0.7541504
1b,1,None,3402898,1779733377761,-0.19,9.51,2.21,1.25,-1.375,1.3125,-0.22589111,-0.18487549,-0.58862305,-0.75390625
1b,4,None,29405819,1779733377761,-1.1181464,0.18653965,-5.367101,-28.34496,110.251114,37.043728,-123.754395,-72.66291,229.31755,0.0
1b,2,None,444895,1779733377762,-9.12927,-2.3230956,0.21296123,-0.21336222,1.6262403,-14.212381,27.918411,59.50092,213.77895,0.0
1b,1,None,3402923,1779733377785,-0.09,9.45,2.19,1.125,-0.3125,2.0625,-0.22570801,-0.18493652,-0.58880615,-0.7537842
1b,1,None,3402948,1779733377815,0.06,9.45,2.24,0.3125,-1.8125,3.375,-0.2253418,-0.18560791,-0.5887451,-0.7537842
1b,1,None,3402958,1779733377816,0.0,9.38,2.28,-0.0625,-2.625,3.3125,-0.22528076,-0.18591309,-0.58862305,-0.7537842
1b,4,None,29405879,1779733377819,2.6146572,2.1414766,-4.7306104,27.16504,80.221115,-14.266272,-123.93088,-72.682106,229.48895,0.0
1b,2,None,444956,1779733377823,-8.889988,-2.7274826,0.0957129,1.9566379,2.7462401,-13.16238,27.85504,59.57007,213.72191,0.0
1b,3,None,3202920,1779733377827,11.428322,-5.957832,-6.407979,-42.584225,12.2997,94.67922,-107.72088,-55.82758,343.25815,0.0
1b,1,None,3402978,1779733377847,-0.03,9.48,2.18,-0.25,-2.1875,3.375,-0.22509766,-0.1864624,-0.588501,-0.7537842
1b,1,None,3403003,1779733377875,0.04,9.41,2.25,-0.8125,-1.0625,3.375,-0.22485352,-0.18688965,-0.5883789,-0.7538452
1b,1,None,3403020,1779733377876,0.07,9.39,2.29,-1.0,-0.4375,2.9375,-0.22454834,-0.18719482,-0.5881958,-0.7540283
1b,4,None,29405939,1779733377878,3.3827531,-0.27527475,-2.723032,47.18504,101.221115,-45.48627,-124.05364,-72.69583,229.61578,0.0
1b,3,None,3202980,1779733377896,11.631712,-6.5823584,-5.261817,-30.614223,0.18969917,55.47922,-107.82644,-55.809505,343.3333,0.0
1b,1,None,3403045,1779733377910,0.1,9.4,2.3,-1.3125,-1.0,2.25,-0.22424316,-0.1875,-0.5878296,-0.7543335
1b,2,None,445015,1779733377913,-8.851702,-3.0194068,0.16271193,-3.853362,2.6062403,-5.7423806,27.787548,59.637318,213.66417,0.0
1b,1,None,3403062,1779733377935,0.02,9.43,2.28,-1.25,0.4375,1.625,-0.22418213,-0.18756104,-0.58776855,-0.75439453
1b,1,None,3403079,1779733377936,0.1,9.44,2.29,-1.0625,0.625,1.0,-0.22399902,-0.1875,-0.5876465,-0.75457764
1b,1,None,3403102,1779733377965,0.2,9.32,2.3,-1.625,-0.0625,0.0625,-0.22406006,-0.18743896,-0.5874634,-0.7546997
1b,4,None,29406000,1779733377968,2.291626,-5.2978096,-5.0440702,41.93504,115.221115,-39.816273,-124.005745,-72.6558,229.57646,0.0
1b,2,None,445076,1779733377973,-8.784703,-3.0385497,-0.026321048,-6.303362,-0.75375986,1.397619,27.72434,59.70278,213.61166,0.0
1b,3,None,3203070,1779733377977,11.918851,-6.7043924,-7.2406816,28.745777,-2.7503006,47.989223,-107.915794,-55.78814,343.41315,0.0
1b,1,None,3403128,1779733377997,-0.09,9.41,2.29,-1.5625,0.5625,0.125,-0.2241211,-0.18719482,-0.58721924,-0.7548828
1b,1,None,3403147,1779733378025,-0.02,9.53,2.21,0.0625,3.5625,0.1875,-0.22393799,-0.18664551,-0.5874634,-0.75494385
1b,1,None,3403170,1779733378026,0.25,9.48,2.22,-0.625,2.75,1.0625,-0.22357178,-0.1862793,-0.58758545,-0.7550049
1b,4,None,29406059,1779733378028,4.0599217,-3.6419766,-5.65424,-78.53496,117.60111,-4.6762714,-124.0426,-72.619225,229.57558,0.0
1b,2,None,445166,1779733378033,-9.040735,-2.6772335,0.13399807,-8.263362,-1.5237597,6.297619,27.666685,59.767365,213.56522,0.0
1b,3,None,3203130,1779733378046,12.146169,-7.051352,-7.1712894,29.445776,-14.930301,34.54922,-108.01178,-55.768166,343.5017,0.0
1b,1,None,3403190,1779733378063,0.06,9.54,2.13,-1.5625,1.0,1.5,-0.22338867,-0.18615723,-0.5874634,-0.755188
1b,1,None,3403208,1779733378085,-0.05,9.51,2.29,-1.9375,-0.0625,2.875,-0.22314453,-0.18634033,-0.58721924,-0.7554321
1b,1,None,3403234,1779733378085,-0.05,9.48,2.32,-1.5,0.3125,4.25,-0.22253418,-0.18664551,-0.586853,-0.75579834
1b,4,None,29406149,1779733378089,1.573779,-4.527321,-5.919843,81.90504,26.391111,-45.69627,-124.10694,-72.567085,229.66466,0.0
1b,2,None,445225,1779733378092,-8.84931,-2.7825177,0.052642096,-8.753363,-0.1937598,6.157619,27.607727,59.83233,213.51784,0.0
1b,1,None,3403248,1779733378115,-0.03,9.51,2.23,-1.3125,0.75,5.625,-0.222229,-0.18682861,-0.58673096,-0.7559204
1b,3,None,3203220,1779733378127,10.806189,-9.884454,-6.1854463,-26.554224,-33.200302,17.889221,-108.10782,-55.71068,343.57852,0.0
1b,1,None,3403274,1779733378145,0.04,9.43,2.28,-0.6875,1.9375,6.3125,-0.22137451,-0.18707275,-0.5866089,-0.7562256
1b,1,None,3403294,1779733378146,0.19,9.36,2.28,-1.0,2.125,6.0625,-0.22045898,-0.1873169,-0.5864258,-0.7565918
1b,4,None,29406209,1779733378149,0.2720836,-4.7474604,-8.2145605,23.805038,-22.048887,-25.256271,-124.24945,-72.50276,229.81192,0.0
1b,2,None,445286,1779733378152,-9.095771,-2.6078415,0.11246266,-8.473362,0.5762402,5.317619,27.551403,59.897808,213.47255,0.0
1b,1,None,3403312,1779733378175,0.39,9.43,2.27,-1.0,1.875,4.875,-0.21960449,-0.18756104,-0.58618164,-0.756958
1b,1,None,3403328,1779733378207,0.1,9.38,2.31,-1.125,0.6875,4.1875,-0.21899414,-0.18780518,-0.58599854,-0.7572632
1b,1,None,3403351,1779733378209,0.08,9.41,2.31,-0.4375,1.8125,4.0625,-0.21838379,-0.18792725,-0.58587646,-0.7574463
1b,4,None,29406269,1779733378210,2.9592233,-1.5362924,-8.784052,-64.60496,-16.028889,-21.896273,-124.48878,-72.46106,230.02132,0.0
1b,2,None,445345,1779733378214,-9.007236,-2.5671635,0.06699903,-6.233362,-2.0837598,3.077619,27.494715,59.962845,213.42569,0.0
1b,3,None,3203310,1779733378219,11.270396,-6.8862467,-8.662018,-75.69423,-17.520302,51.48922,-108.23995,-55.679134,343.666,0.0
1b,1,None,3403368,1779733378238,0.04,9.48,2.32,-0.5625,4.5625,4.4375,-0.2175293,-0.18774414,-0.5859375,-0.7576904
1b,1,None,3403397,1779733378267,0.31,9.49,2.26,-0.4375,5.125,3.4375,-0.21624756,-0.18725586,-0.5860596,-0.7581177
1b,4,None,29406329,1779733378269,-1.1516458,-5.7572317,-7.84128,33.04504,-25.89889,-34.84627,-124.60385,-72.39602,230.14633,0.0
1b,2,None,445406,1779733378274,-8.959379,-2.5958772,-0.09332008,-9.733362,-0.33375978,1.2576189,27.438152,60.02903,213.3798,0.0
1b,3,None,3203371,1779733378279,10.619548,-6.0296164,-6.070591,-47.134224,-26.2003,33.359222,-108.3683,-55.660427,343.76123,0.0
1b,1,None,3403416,1779733378299,0.25,9.36,2.35,-0.875,2.0,1.3125,-0.21582031,-0.18713379,-0.5859375,-0.7583618
1b,1,None,3403436,1779733378299,0.36,9.32,2.38,-0.0625,2.6875,-0.25,-0.21551514,-0.18682861,-0.58599854,-0.75842285
1b,1,None,3403460,1779733378326,0.29,9.32,2.39,0.1875,1.0625,-1.5625,-0.21551514,-0.18652344,-0.5861206,-0.75842285
1b,4,None,29406389,1779733378330,-1.5368903,-5.3002024,-5.386244,-35.27496,-44.098885,40.753727,-124.67378,-72.30591,230.20262,0.0
1b,2,None,445465,1779733378334,-8.851702,-2.7729464,0.16271193,-8.473362,0.7862402,1.047619,27.374212,60.094704,213.3272,0.0
1b,3,None,3203460,1779733378346,12.866409,-5.4003043,-9.549755,101.755775,27.559698,39.93922,-108.424736,-55.654846,343.8295,0.0
1b,1,None,3403480,1779733378361,0.17,9.39,2.29,0.0625,-0.375,-2.5,-0.21588135,-0.1862793,-0.58618164,-0.7583618
1b,1,None,3403499,1779733378361,0.15,9.43,2.27,0.4375,-0.4375,-2.75,-0.21624756,-0.18597412,-0.5863037,-0.75823975
1b,1,None,3403525,1779733378387,0.1,9.43,2.32,0.6875,-0.8125,-1.9375,-0.21679688,-0.18579102,-0.58654785,-0.7579346
1b,4,None,29406449,1779733378389,1.6096715,-2.9719858,-3.9170508,-154.83496,17.081112,76.17372,-124.7529,-72.21815,230.22041,0.0
1b,2,None,445525,1779733378394,-8.851702,-2.6102343,-0.1914258,-7.913362,-1.2437598,2.937619,27.31943,60.16039,213.28244,0.0
1b,3,None,3203520,1779733378406,12.031314,-9.858132,-7.070791,-11.014223,-0.37030077,38.11922,-108.50725,-55.605145,343.89215,0.0
1b,1,None,3403545,1779733378419,0.08,9.43,2.3,1.0625,-1.0625,-1.125,-0.21697998,-0.18579102,-0.5866089,-0.7578125
1b,1,None,3403563,1779733378419,0.03,9.42,2.3,1.6875,-0.875,0.0,-0.21710205,-0.18585205,-0.586853,-0.75756836
1b,1,None,3403590,1779733378446,0.11,9.44,2.24,1.375,-0.5625,0.875,-0.21704102,-0.18597412,-0.5871582,-0.7573242
1b,4,None,29406509,1779733378451,1.4206386,1.7107682,-3.8644085,-136.14496,7.4211116,34.033726,-125.01904,-72.203804,230.42584,0.0
1b,2,None,445585,1779733378453,-9.026379,-2.6580908,0.076570325,-5.813362,-2.15376,3.007619,27.26044,60.225185,213.2333,0.0
1b,3,None,3203581,1779733378463,10.942579,-7.29542,-6.881758,-26.484224,-14.720301,41.47922,-108.6163,-55.572006,343.97464,0.0
1b,1,None,3403606,1779733378477,0.07,9.47,2.29,1.625,-0.875,2.1875,-0.21685791,-0.18621826,-0.5873413,-0.7571411
1b,1,None,3403626,1779733378506,0.05,9.5,2.25,1.5625,-1.375,3.3125,-0.21661377,-0.18670654,-0.5874634,-0.75701904
1b,1,None,3403647,1779733378509,0.25,9.44,2.27,1.5625,-1.1875,3.625,-0.21624756,-0.18719482,-0.58758545,-0.756897
1b,4,None,29406569,1779733378509,-0.17058863,0.42582187,-3.4289148,-58.37496,36.821114,19.053728,-125.21291,-72.17077,230.58665,0.0
1b,2,None,445645,1779733378520,-8.949808,-2.6652694,0.043070808,-4.063362,-2.2237597,2.237619,27.201496,60.29009,213.18352,0.0
1b,3,None,3203640,1779733378521,11.260825,-6.6924286,-7.4991064,11.595777,-30.9603,50.29922,-108.72312,-55.54192,344.0687,0.0
1b,1,None,3403669,1779733378536,0.17,9.44,2.26,1.1875,-2.8125,3.75,-0.21600342,-0.18792725,-0.58758545,-0.75683594
1b,1,None,3403696,1779733378568,0.21,9.43,2.26,1.0625,-2.625,3.375,-0.21582031,-0.18859863,-0.5875244,-0.75671387
1b,1,None,3403706,1779733378569,0.2,9.42,2.26,0.875,-1.5625,3.0625,-0.21557617,-0.18920898,-0.5875244,-0.75671387
1b,4,None,29406629,1779733378569,0.84157544,-0.26809624,-2.5794628,57.61504,17.571112,-7.5462723,-125.37592,-72.13477,230.75987,0.0
1b,2,None,445706,1779733378573,-8.980915,-2.6485195,0.0,-3.7833622,-2.92376,2.027619,27.143303,60.354885,213.13419,0.0
1b,3,None,3203700,1779733378578,11.215362,-6.041581,-6.393622,58.495777,-22.9803,44.839222,-108.81193,-55.523552,344.1602,0.0
1b,1,None,3403730,1779733378598,0.32,9.46,2.24,1.125,-0.5,1.4375,-0.21539307,-0.18945312,-0.58758545,-0.75665283
1b,1,None,3403752,1779733378627,0.3,9.38,2.27,0.875,-0.5,-0.0625,-0.215271,-0.18951416,-0.5876465,-0.75653076
1b,1,None,3403766,1779733378629,0.33,9.45,2.22,0.6875,-0.5,-1.1875,-0.21539307,-0.18945312,-0.58776855,-0.7564697
1b,4,None,29406689,1779733378629,-0.13948183,-0.90937287,-4.223332,7.9850397,2.381112,-3.9762719,-125.5427,-72.08142,230.92126,0.0
1b,2,None,445765,1779733378634,-9.004843,-2.7083402,0.023928225,-4.973362,-3.4837599,2.587619,27.08334,60.419266,213.0837,0.0
1b,3,None,3203760,1779733378639,10.227126,-10.52573,-7.6594253,22.725777,0.8196993,23.20922,-108.874504,-55.466965,344.21667,0.0
1b,1,None,3403790,1779733378658,0.22,9.43,2.23,0.875,-0.5625,-1.625,-0.2156372,-0.18939209,-0.58795166,-0.7562866
1b,1,None,3403812,1779733378687,0.16,9.48,2.27,0.6875,-0.4375,-1.25,-0.21582031,-0.18927002,-0.58813477,-0.7561035
1b,1,None,3403829,1779733378688,0.15,9.41,2.25,1.0,0.4375,-0.6875,-0.21594238,-0.18914795,-0.5883179,-0.75598145
1b,4,None,29406750,1779733378690,-0.4194421,1.7586242,-0.9499506,125.655045,-38.148888,-42.19627,-125.71288,-72.10428,231.13092,0.0
1b,2,None,445826,1779733378694,-8.97613,-2.6198056,0.11485548,-5.3233624,-2.57376,2.097619,27.022757,60.483868,213.03271,0.0
1b,3,None,3203820,1779733378707,11.01915,-8.1688,-7.7886376,-12.554223,-0.2303009,50.789223,-108.96644,-55.424892,344.28558,0.0
1b,1,None,3403851,1779733378720,0.2,9.37,2.29,0.8125,0.0,-0.1875,-0.21600342,-0.18914795,-0.58843994,-0.7558594
1b,1,None,3403869,1779733378748,0.19,9.51,2.2,0.8125,-0.0625,-0.4375,-0.21600342,-0.18914795,-0.58862305,-0.7557373
1b,1,None,3403889,1779733378749,0.16,9.46,2.18,0.625,0.125,-0.25,-0.21600342,-0.18914795,-0.5887451,-0.75561523
1b,4,None,29406809,1779733378749,-0.90757793,-2.5077784,-8.736196,24.50504,-29.818888,-38.976273,-125.90734,-72.050125,231.32913,0.0
1b,2,None,445885,1779733378755,-8.878023,-2.7370539,0.0119641125,-5.253362,-1.3137599,1.187619,26.961195,60.549,212.9808,0.0
1b,3,None,3203880,1779733378759,12.442879,-6.0152597,-7.8197446,-15.634224,-36.630302,43.50922,-109.09014,-55.409515,344.387,0.0
1b,1,None,3403917,1779733378779,0.2,9.44,2.21,0.6875,0.375,0.25,-0.21600342,-0.18908691,-0.5889282,-0.75549316
1b,1,None,3403936,1779733378807,0.14,9.43,2.27,0.6875,0.5,0.8125,-0.21594238,-0.18914795,-0.58898926,-0.7554321
1b,1,None,3403955,1779733378809,0.16,9.47,2.17,0.625,0.6875,1.0625,-0.21575928,-0.18908691,-0.5890503,-0.7554321
1b,4,None,29406869,1779733378809,2.4232311,-2.4072797,-9.288938,7.4250402,-50.04889,-17.976273,-126.125046,-71.99223,231.54414,0.0
1b,2,None,445946,1779733378814,-9.155591,-2.4977717,0.20817557,-5.043362,-0.8237598,1.397619,26.901667,60.61418,212.93063,0.0
1b,1,None,3403982,1779733378837,0.14,9.4,2.21,0.0625,0.6875,1.1875,-0.21557617,-0.18902588,-0.5891113,-0.75549316
1b,3,None,3203940,1779733378854,11.56232,-4.548459,-8.805588,49.115776,-28.2303,15.089222,-109.19603,-55.407352,344.49258,0.0
1b,1,None,3403997,1779733378872,0.17,9.45,2.17,-0.4375,1.3125,1.75,-0.215271,-0.18896484,-0.58917236,-0.75549316
1b,4,None,29406929,1779733378872,1.3656036,1.3590227,-6.259624,30.945038,-46.19889,-36.87627,-126.407135,-71.968094,231.82903,0.0
1b,2,None,446005,1779733378874,-8.921094,-2.7992675,0.13160524,-6.513362,-2.5037599,1.397619,26.836073,60.67846,212.87546,0.0
1b,1,None,3404023,1779733378897,0.13,9.53,2.16,-0.75,1.3125,2.3125,-0.21496582,-0.18890381,-0.58917236,-0.75561523
1b,1,None,3404037,1779733378899,0.2,9.42,2.18,-0.9375,1.0625,2.875,-0.21453857,-0.18896484,-0.5890503,-0.75579834
1b,3,None,3204000,1779733378912,25.402405,12.407083,9.454042,232.02577,-104.9503,13.899223,-109.14755,-55.43851,344.53812,0.0
1b,1,None,3404061,1779733378929,0.13,9.51,2.28,-0.625,0.6875,3.3125,-0.21417236,-0.18908691,-0.5889282,-0.75598145
1b,2,None,446065,1779733378934,-8.949808,-2.6628766,0.22253251,-5.743362,-0.9637598,4.407619,26.773367,60.742718,212.82312,0.0
1b,1,None,3404077,1779733378957,0.18,9.44,2.28,-0.125,1.1875,3.375,-0.21368408,-0.18920898,-0.5889282,-0.7561035
1b,1,None,3404100,1779733378959,0.37,9.45,2.26,0.25,0.4375,3.25,-0.2131958,-0.18945312,-0.58880615,-0.7562256
1b,4,None,29406989,1779733378960,-2.1781666,-3.6228335,-8.949157,105.56504,-16.518888,-80.556274,-126.557106,-71.92393,232.01326,0.0
1b,3,None,3204090,1779733378969,14.127427,-18.591934,-3.0436704,295.72577,-170.68031,5.2892227,-109.074005,-55.3518,344.5942,0.0
1b,1,None,3404117,1779733378989,0.39,9.4,2.28,0.0,-2.125,1.9375,-0.21307373,-0.18988037,-0.5886841,-0.7562866
1b,2,None,446125,1779733378993,-9.107734,-2.588699,0.11485548,-5.953362,-1.2437598,5.877619,26.715118,60.807037,212.7749,0.0
1b,1,None,3404137,1779733379017,0.2,9.36,2.31,0.125,-2.75,1.125,-0.2131958,-0.19036865,-0.588562,-0.7562256
1b,1,None,3404161,1779733379018,0.24,9.4,2.24,0.75,-1.4375,0.875,-0.21325684,-0.19067383,-0.588501,-0.75616455
1b,3,None,3204150,1779733379029,7.2863464,-14.591136,1.8113667,-74.36423,-108.170296,82.84922,-109.06697,-55.270275,344.582,0.0
1b,1,None,3404188,1779733379048,0.24,9.43,2.21,0.5625,-1.25,0.4375,-0.2133789,-0.19085693,-0.588562,-0.7561035
1b,4,None,29407049,1779733379051,-5.415656,-7.566205,-1.0432707,112.91504,30.591112,-51.50627,-126.46769,-71.90622,231.96643,0.0
1b,2,None,446185,1779733379053,-8.952201,-2.5695562,-0.014356935,-4.483362,-1.4537598,4.057619,26.657925,60.871754,212.72682,0.0
1b,1,None,3404205,1779733379080,0.28,9.41,2.2,0.25,-1.1875,-0.5,-0.21356201,-0.19104004,-0.588562,-0.75598145
1b,3,None,3204210,1779733379089,9.207783,-12.920945,0.56470615,-63.374226,-16.610302,66.39922,-109.01012,-55.20416,344.5159,0.0
1b,1,None,3404225,1779733379113,0.24,9.45,2.24,0.3125,-1.1875,-1.0625,-0.21386719,-0.19104004,-0.588562,-0.7559204
1b,1,None,3404248,1779733379113,0.25,9.44,2.23,0.125,-1.0625,-1.125,-0.21417236,-0.19104004,-0.588562,-0.75579834
1b,2,None,446246,1779733379113,-9.009629,-2.5647707,0.16271193,-5.3233624,-1.5937599,2.097619,26.596268,60.936333,212.67476,0.0
1b,4,None,29407139,1779733379113,-8.179366,-4.938886,-9.492328,32.62504,-45.638885,-13.8462715,-126.57177,-71.848236,232.08104,0.0
1b,1,None,3404266,1779733379139,0.24,9.41,2.26,0.375,-1.5,-1.125,-0.21447754,-0.19110107,-0.588562,-0.75567627
1b,3,None,3204270,1779733379148,9.286746,-12.710378,-3.6729827,-111.814224,52.3397,77.59922,-108.9959,-55.109524,344.45728,0.0
1b,1,None,3404296,1779733379165,0.15,9.47,2.18,0.375,-1.0,-0.375,-0.21466064,-0.19116211,-0.588562,-0.75561523
1b,1,None,3404306,1779733379166,0.19,9.46,2.21,0.125,-1.1875,0.0625,-0.21478271,-0.19128418,-0.588562,-0.7555542
1b,4,None,29407229,1779733379168,-5.977969,-6.5372915,-3.7998023,7.9850397,3.6411119,-28.476273,-126.56956,-71.80908,232.08311,0.0
1b,2,None,446305,1779733379173,-8.916308,-2.6844118,0.17228323,-3.2933621,-1.1737598,0.69761896,26.531706,61.000988,212.61932,0.0
1b,1,None,3404332,1779733379195,0.16,9.48,2.21,0.0,-1.625,0.5625,-0.21496582,-0.19146729,-0.588501,-0.75549316
1b,3,None,3204331,1779733379212,11.734605,-8.611472,-5.379065,-124.90423,73.6197,118.19922,-109.07149,-55.04864,344.4619,0.0
1b,1,None,3404349,1779733379230,0.19,9.42,2.29,1.0,-0.5625,0.875,-0.21496582,-0.19165039,-0.588562,-0.7554321
1b,4,None,29407289,1779733379230,-3.307579,-11.361222,-4.7425747,6.86504,33.251114,-3.1362722,-126.49629,-71.7585,232.01308,0.0
1b,1,None,3404375,1779733379230,0.19,9.43,2.25,1.3125,-0.4375,1.125,-0.21466064,-0.19189453,-0.5886841,-0.75531006
1b,2,None,446366,1779733379233,-8.9665575,-2.6509123,0.016749758,-3.9933622,-2.5037599,1.467619,26.470383,61.065525,212.56693,0.0
1b,1,None,3404398,1779733379255,0.18,9.39,2.21,1.375,0.5,1.375,-0.21453857,-0.1920166,-0.58880615,-0.75531006
1b,3,None,3204390,1779733379271,11.117256,-7.8194475,-6.735796,-28.794224,51.499702,87.11922,-109.13823,-55.004395,344.49295,0.0
1b,1,None,3404413,1779733379288,0.13,9.44,2.21,1.3125,2.5625,1.625,-0.2140503,-0.19189453,-0.58898926,-0.755249
1b,4,None,29407349,1779733379288,-1.1229321,-9.920743,-1.995614,-33.45496,113.331116,67.28373,-126.289734,-71.710396,231.79152,0.0
1b,2,None,446425,1779733379293,-8.928273,-2.6221986,0.10528419,-7.283362,-1.0337597,1.2576189,26.406683,61.130344,212.5135,0.0
1b,1,None,3404437,1779733379315,0.21,9.41,2.18,1.3125,5.25,1.75,-0.2130127,-0.19140625,-0.5894165,-0.7553711
1b,1,None,3404451,1779733379316,0.26,9.37,2.08,1.25,5.6875,0.9375,-0.21264648,-0.19110107,-0.5895996,-0.7554321
1b,3,None,3204450,1779733379331,11.095719,-8.080266,-8.181061,-80.034225,49.399696,100.909225,-109.22316,-54.95395,344.52368,0.0
1b,1,None,3404476,1779733379347,0.33,9.33,2.22,1.5,5.125,-1.0,-0.21179199,-0.19006348,-0.5901489,-0.7554321
1b,4,None,29407409,1779733379349,0.56161517,-3.898008,-3.0053852,-58.51496,148.89111,129.65373,-126.10925,-71.63008,231.57924,0.0
1b,2,None,446486,1779733379352,-9.059877,-2.720304,0.13878371,-9.733362,-1.7337598,1.327619,26.340117,61.1947,212.45822,0.0
1b,1,None,3404500,1779733379375,0.24,9.41,2.22,1.6875,7.1875,-2.375,-0.21136475,-0.18914795,-0.59069824,-0.7554321
1b,1,None,3404518,1779733379376,0.55,9.48,2.15,0.4375,6.75,-2.0,-0.21099854,-0.18798828,-0.5911255,-0.7554321
1b,3,None,3204510,1779733379389,10.124234,-8.829219,-7.6211405,-45.664223,51.009697,105.52922,-109.28489,-54.88929,344.54453,0.0
1b,1,None,3404536,1779733379413,0.12,9.66,2.08,-0.375,4.8125,-2.375,-0.2107544,-0.18701172,-0.5914917,-0.75549316
1b,4,None,29407469,1779733379413,8.304789,3.1775687,-6.5084777,103.04504,205.31111,-35.12627,-126.14992,-71.69654,231.63603,0.0
1b,2,None,446545,1779733379414,-8.856488,-2.3924875,-0.05742774,-7.493362,0.3662402,-1.612381,26.281343,61.260868,212.40878,0.0
1b,1,None,3404555,1779733379435,0.25,9.56,2.14,-0.8125,2.875,-1.8125,-0.2107544,-0.1864624,-0.59161377,-0.75549316
1b,1,None,3404581,1779733379436,0.07,9.46,2.21,1.0,4.75,-0.125,-0.21044922,-0.18585205,-0.5918579,-0.7555542
1b,3,None,3204570,1779733379447,13.177476,-3.1821578,6.683153,30.285776,-13.4603,37.839222,-109.21678,-54.90642,344.4975,0.0
1b,1,None,3404596,1779733379465,0.14,9.52,2.16,1.5,6.625,-0.25,-0.20977783,-0.18499756,-0.5923462,-0.7555542
1b,1,None,3404615,1779733379466,0.14,9.42,2.19,1.25,5.5,-0.0625,-0.20928955,-0.18432617,-0.5927124,-0.7555542
1b,4,None,29407529,1779733379468,11.566207,2.8976083,-7.0683985,-151.05496,158.90111,35.643726,-126.269516,-71.737144,231.68315,0.0
1b,2,None,446605,1779733379472,-9.0790205,-2.5719492,0.29910284,-20.093363,5.5462403,-6.2323813,26.208055,61.32842,212.35013,0.0
1b,1,None,3404642,1779733379495,0.13,9.39,2.22,1.25,5.25,-0.125,-0.20874023,-0.18365479,-0.5930786,-0.75561523
1b,3,None,3204630,1779733379514,10.361123,-6.4746814,-12.098111,-27.114223,-29.420301,50.579224,-109.34016,-54.870846,344.59293,0.0
1b,1,None,3404656,1779733379532,0.22,9.33,2.16,0.1875,2.6875,1.125,-0.20837402,-0.18328857,-0.5932617,-0.75567627
1b,4,None,29407589,1779733379532,3.937888,-6.7550383,-11.093125,15.4750395,109.06111,31.863728,-126.25426,-71.68432,231.66214,0.0
1b,2,None,446666,1779733379534,-9.174733,-2.4738433,-0.11964113,-14.423363,3.2362404,-7.9123807,26.14473,61.39649,212.298,0.0
1b,1,None,3404676,1779733379557,-0.03,9.48,2.15,0.875,5.0625,2.375,-0.2078247,-0.1828003,-0.59350586,-0.7557373
1b,1,None,3404696,1779733379559,0.0,9.4,2.17,0.75,7.375,3.9375,-0.20678711,-0.18206787,-0.5939331,-0.7558594
1b,3,None,3204690,1779733379573,10.832509,-6.18515,-9.224331,-57.984222,-65.8903,65.48922,-109.48657,-54.832054,344.70422,0.0
1b,1,None,3404721,1779733379590,0.35,9.44,2.01,0.375,8.3125,3.875,-0.20550537,-0.18139648,-0.59417725,-0.7562256
1b,4,None,29407649,1779733379590,8.907781,-9.152647,-7.774281,57.335037,20.86111,93.043724,-126.18199,-71.58968,231.60466,0.0
1b,2,None,446725,1779733379594,-9.055093,-2.844731,-0.06460621,-12.673363,4.14624,-9.66238,26.07301,61.464554,212.23776,0.0
1b,1,None,3404736,1779733379617,0.28,9.45,2.05,-0.5,7.6875,2.625,-0.20440674,-0.18066406,-0.5942993,-0.7565918
1b,1,None,3404756,1779733379620,0.43,9.31,2.34,-0.1875,3.875,1.9375,-0.20361328,-0.18017578,-0.5944214,-0.7567749
1b,3,None,3204750,1779733379632,11.911673,-6.237792,-5.623133,5.4357767,-39.0803,44.699223,-109.59908,-54.822388,344.80215,0.0
1b,1,None,3404781,1779733379647,0.17,9.21,2.32,-1.25,2.375,1.375,-0.203125,-0.18005371,-0.59436035,-0.75701904
1b,2,None,446786,1779733379652,-9.095771,-2.8112314,0.41156548,1.8166375,-6.7037597,-5.9523807,25.997133,61.527363,212.16914,0.0
1b,1,None,3404796,1779733379675,0.02,9.67,1.61,-2.9375,6.1875,0.875,-0.20257568,-0.17938232,-0.59417725,-0.7574463
1b,1,None,3404820,1779733379676,0.32,9.52,2.21,-3.875,8.5,0.0,-0.20184326,-0.17816162,-0.59399414,-0.75805664
1b,4,None,29407709,1779733379679,12.5735855,-4.2186465,-5.249853,-297.70496,-64.53889,127.41373,-126.37585,-71.494736,231.68744,0.0
1b,3,None,3204810,1779733379687,11.11247,-5.697014,-6.798009,17.125776,-42.0903,14.249222,-109.71584,-54.81476,344.9095,0.0
1b,1,None,3404843,1779733379707,0.1,9.48,2.51,-3.0,2.875,1.4375,-0.20141602,-0.17755127,-0.59368896,-0.7585449
1b,2,None,446845,1779733379712,-9.758582,-2.4570937,0.52163535,3.7066379,-3.9737597,5.737619,25.93685,61.58981,212.11557,0.0
1b,1,None,3404858,1779733379735,-0.35,9.65,2.38,-2.5625,2.1875,4.625,-0.2008667,-0.1776123,-0.59332275,-0.75897217
1b,1,None,3404878,1779733379736,0.13,9.65,2.09,-2.5,10.0625,6.5625,-0.19934082,-0.17712402,-0.5930176,-0.7597046
1b,4,None,29407769,1779733379738,10.848359,1.2298107,-1.1365907,-270.19495,-121.02889,41.03373,-126.63516,-71.52184,231.852,0.0
1b,3,None,3204871,1779733379747,7.4921293,-10.721941,-4.2352962,91.74577,-16.1903,111.61922,-109.68222,-54.70122,344.9037,0.0
1b,1,None,3404901,1779733379765,0.29,9.56,2.35,-3.4375,9.1875,8.0,-0.19750977,-0.17645264,-0.59277344,-0.7606201
1b,2,None,446906,1779733379772,-9.067057,-0.6529054,-0.050249275,50.186638,-15.663759,7.907619,25.937738,61.64876,212.101,0.0
1b,1,None,3404918,1779733379795,0.2,9.77,2.14,-3.0,3.3125,8.4375,-0.19604492,-0.1765747,-0.5922241,-0.76135254
1b,4,None,29407859,1779733379798,5.5626144,0.6004981,2.8953156,-153.22496,-103.738884,10.303728,-126.70456,-71.53763,231.8756,0.0
1b,3,None,3204930,1779733379807,8.33201,-6.3837543,-5.986842,200.45578,-35.7203,-10.1807785,-109.72339,-54.67361,345.00183,0.0
1b,1,None,3404949,1779733379825,0.14,9.4,2.32,-1.4375,2.9375,8.6875,-0.19476318,-0.17694092,-0.5918579,-0.7618408
1b,1,None,3404966,1779733379826,0.2,9.28,2.37,1.25,5.3125,8.8125,-0.19232178,-0.1772461,-0.59198,-0.7623291
1b,2,None,446965,1779733379832,-9.399659,-1.5215001,-0.57906306,65.65664,-6.98376,23.167618,25.943916,61.70927,212.08922,0.0
1b,1,None,3404985,1779733379855,0.53,9.34,2.04,2.8125,3.1875,6.625,-0.19085693,-0.17755127,-0.5922241,-0.7624512
1b,1,None,3405001,1779733379856,0.66,9.31,2.43,4.3125,2.0625,4.5625,-0.19042969,-0.17773438,-0.59246826,-0.7623291
1b,4,None,29407919,1779733379858,2.382553,1.6341982,-0.52642095,-29.18496,-123.47889,-27.006271,-126.97341,-71.57219,232.1337,0.0
1b,3,None,3204990,1779733379872,9.399209,-13.681863,-4.8526444,90.83577,-62.950302,1.2292213,-109.719604,-54.59021,345.0365,0.0
1b,1,None,3405025,1779733379889,0.31,9.32,2.31,7.0,2.375,-0.1875,-0.18963623,-0.17785645,-0.59381104,-0.7614746
1b,2,None,447026,1779733379892,-9.433158,-1.4114302,-0.6939185,54.24664,5.3362403,34.92762,25.960514,61.77174,212.09274,0.0
1b,1,None,3405047,1779733379915,0.75,9.23,2.33,9.5,2.4375,-4.3125,-0.18945312,-0.17755127,-0.59503174,-0.7606201
1b,1,None,3405064,1779733379916,0.46,9.31,2.26,8.9375,1.3125,-5.5625,-0.1895752,-0.17736816,-0.5957031,-0.76013184
1b,4,None,29407979,1779733379919,2.3634105,-0.58873457,0.071784675,-29.25496,-107.168884,-29.246273,-126.96864,-71.590195,232.13087,0.0
1b,3,None,3205050,1779733379932,8.757933,-11.451752,-4.074977,32.245777,-62.250298,26.779222,-109.73188,-54.498646,345.0657,0.0
1b,1,None,3405090,1779733379947,0.42,9.44,2.24,8.8125,-3.875,-9.1875,-0.19110107,-0.17700195,-0.5975952,-0.7583008
1b,2,None,447085,1779733379953,-9.33266,-0.057092573,0.26799613,31.146637,7.22624,52.91762,25.999073,61.829674,212.12552,0.0
1b,1,None,3405105,1779733379976,0.36,9.44,2.27,9.75,-5.0625,-10.125,-0.19274902,-0.17694092,-0.598999,-0.75683594
1b,4,None,29408040,1779733379979,1.549851,-1.9478579,0.052642096,-121.86496,-98.138885,-34.566273,-126.960335,-71.5406,232.09355,0.0
1b,3,None,3205110,1779733379991,8.080764,-11.3823595,-3.6179476,80.47577,-50.700302,37.90922,-109.70957,-54.40489,345.0775,0.0
1b,1,None,3405131,1779733380007,0.24,9.52,2.06,10.5625,-6.75,-9.875,-0.19433594,-0.17718506,-0.60046387,-0.755188
1b,1,None,3405149,1779733380007,0.03,9.91,1.99,10.125,-10.875,-8.8125,-0.19622803,-0.17779541,-0.6016846,-0.75354004
1b,2,None,447145,1779733380013,-8.767954,0.82107335,1.7276179,34.646637,16.256239,60.33762,26.0502,61.88719,212.17006,0.0
1b,1,None,3405164,1779733380034,0.02,9.85,1.93,9.9375,-12.875,-9.125,-0.19732666,-0.17834473,-0.6022339,-0.75268555
1b,4,None,29408099,1779733380038,-0.90279233,-0.5839491,-1.3399806,-196.76495,-86.028885,-14.406271,-127.19433,-71.47059,232.25883,0.0
1b,3,None,3205170,1779733380050,7.762518,-13.330118,-2.3401804,101.33577,-45.170303,51.839222,-109.64454,-54.315075,345.0585,0.0
1b,1,None,3405191,1779733380067,0.46,9.79,1.71,9.6875,-19.3125,-10.125,-0.20129395,-0.18060303,-0.60369873,-0.74993896
1b,1,None,3405208,1779733380074,0.64,9.42,1.64,9.875,-26.9375,-14.1875,-0.20526123,-0.18273926,-0.60443115,-0.7477417
1b,2,None,447206,1779733380074,-9.497765,0.71578914,0.31106696,65.58664,9.25624,59.14762,26.127167,61.942,212.22719,0.0
1b,1,None,3405225,1779733380097,-0.01,9.44,2.21,9.625,-28.25,-14.375,-0.20965576,-0.18518066,-0.60510254,-0.74542236
1b,4,None,29408159,1779733380099,-0.98414826,1.7993022,-0.81595254,-104.29496,-42.76889,-27.426271,-127.40008,-71.481445,232.425,0.0
1b,3,None,3205230,1779733380109,6.3459673,-14.095821,-1.8137596,69.55577,-44.4703,75.07922,-109.58428,-54.22075,345.03268,0.0
1b,1,None,3405249,1779733380127,-0.11,9.42,1.84,9.5625,-24.75,-12.875,-0.21374512,-0.18743896,-0.60583496,-0.743042
1b,1,None,3405266,1779733380129,-0.15,9.33,1.56,10.375,-18.375,-10.5625,-0.21679688,-0.18914795,-0.6067505,-0.74102783
1b,2,None,447265,1779733380133,-8.990486,-1.6004632,-0.55034924,30.516636,15.13624,66.91762,26.149706,62.0028,212.24864,0.0
1b,1,None,3405290,1779733380157,-0.6,9.57,1.46,10.4375,-13.125,-6.8125,-0.21881104,-0.19055176,-0.60772705,-0.7392578
1b,4,None,29408219,1779733380159,0.11176446,-0.9285154,-1.0480564,22.825039,-15.818888,-19.446272,-127.46649,-71.4096,232.49823,0.0
1b,3,None,3205291,1779733380175,3.2520478,-14.560029,-2.1559331,45.825775,-53.500298,134.01923,-109.538376,-54.104626,345.00958,0.0
1b,1,None,3405310,1779733380190,-0.31,9.36,1.93,9.8125,-10.75,-3.125,-0.22039795,-0.19165039,-0.60876465,-0.73760986
1b,2,None,447326,1779733380194,-8.174534,-3.2850103,-0.15792629,24.566637,7.9262404,26.527618,26.10096,62.065376,212.20248,0.0
1b,1,None,3405332,1779733380216,-0.23,9.58,1.55,9.875,-7.8125,-1.5,-0.22143555,-0.19256592,-0.60998535,-0.736084
1b,1,None,3405349,1779733380218,0.03,9.51,1.76,10.3125,-5.875,-1.75,-0.22198486,-0.19360352,-0.61102295,-0.7347412
1b,4,None,29408279,1779733380220,0.738684,-2.1823547,0.04546363,20.375038,-20.578888,7.363728,-127.341774,-71.36114,232.38809,0.0
1b,3,None,3205350,1779733380234,2.1393852,-14.92613,0.20338993,36.445778,-48.1103,223.12923,-109.46414,-53.97125,344.9538,0.0
1b,1,None,3405365,1779733380250,-0.2,9.5,1.89,10.6875,-4.6875,-1.3125,-0.22229004,-0.1942749,-0.6123047,-0.7334595
1b,1,None,3405392,1779733380250,-0.02,9.43,1.69,12.4375,-1.6875,-0.8125,-0.22229004,-0.19482422,-0.6137085,-0.7321167
1b,2,None,447385,1779733380254,-8.846916,-2.4331656,1.4093724,85.466644,16.53624,-24.01238,26.030445,62.134415,212.11148,0.0
1b,1,None,3405406,1779733380277,-0.01,9.54,1.44,13.375,-1.3125,-0.8125,-0.2220459,-0.19543457,-0.6152954,-0.73065186
1b,4,None,29408339,1779733380280,1.9829518,-0.41405836,1.713261,3.3650398,-13.858889,16.043728,-127.242325,-71.37952,232.29512,0.0
1b,3,None,3205411,1779733380292,4.6231346,-13.098015,0.72502524,-40.694225,-33.060303,269.5392,-109.39064,-53.829304,344.87088,0.0
1b,1,None,3405435,1779733380307,-0.07,9.56,1.75,14.9375,-2.625,-1.0,-0.22192383,-0.19610596,-0.6170654,-0.72906494
1b,1,None,3405450,1779733380309,-0.12,9.52,1.66,16.25,-5.25,0.1875,-0.2220459,-0.19714355,-0.61883545,-0.7272339
1b,2,None,447446,1779733380314,-8.523886,-1.5478212,3.2446675,169.25664,4.49624,-53.83238,25.926884,62.18788,211.9601,0.0
1b,1,None,3405468,1779733380337,-0.16,9.58,1.33,16.9375,-5.1875,0.875,-0.22198486,-0.19836426,-0.6207886,-0.7252197
1b,4,None,29408399,1779733380340,2.1911273,0.75842416,0.8709875,-1.9549599,-11.0588875,-11.046272,-127.23895,-71.42869,232.29301,0.0
1b,3,None,3205470,1779733380349,5.7310114,-10.599907,1.7754744,-35.864223,-20.180302,258.0592,-109.29845,-53.706867,344.77267,0.0
1b,1,None,3405487,1779733380368,0.03,9.73,1.68,20.875,-3.125,1.5,-0.22167969,-0.19952393,-0.6230469,-0.7230835
1b,1,None,3405507,1779733380369,0.12,9.69,1.32,22.875,-2.125,1.5625,-0.2210083,-0.20074463,-0.62561035,-0.7207031
1b,2,None,447505,1779733380374,-8.528671,-1.3755379,2.9886353,100.58664,-5.3737597,-17.01238,25.826225,62.23726,211.83711,0.0
1b,1,None,3405531,1779733380397,0.21,9.6,1.35,24.875,-3.25,0.5,-0.22045898,-0.20202637,-0.628479,-0.7180786
1b,4,None,29408459,1779733380399,2.2413766,0.13868366,-0.15074782,-5.24496,-12.178888,-27.916271,-127.3247,-71.497826,232.37552,0.0
1b,3,None,3205530,1779733380409,5.326625,-8.015658,1.3686945,-11.014223,1.0296993,207.51923,-109.19207,-53.608536,344.6695,0.0
1b,1,None,3405549,1779733380427,0.02,9.61,1.41,26.625,-7.8125,-0.125,-0.22021484,-0.20379639,-0.6314087,-0.71502686
1b,2,None,447566,1779733380433,-8.241532,-1.5884991,2.5842485,71.88664,-33.30376,5.947619,25.727222,62.27723,211.7258,0.0
1b,1,None,3405570,1779733380456,-0.17,9.64,1.25,29.125,-9.875,0.5625,-0.22039795,-0.20593262,-0.6343994,-0.71173096
1b,1,None,3405598,1779733380458,-0.06,9.71,1.13,31.375,-8.6875,1.8125,-0.21984863,-0.20959473,-0.6394043,-0.7062988
1b,4,None,29408519,1779733380459,1.8010973,-0.15802667,-0.9906286,-11.264959,-16.868889,-25.116272,-127.55348,-71.49058,232.59192,0.0
1b,3,None,3205590,1779733380474,3.9052882,-7.266706,0.7178468,11.595777,18.3197,149.55922,-109.08654,-53.52027,344.57407,0.0
1b,1,None,3405615,1779733380491,-0.02,9.77,1.21,32.875,-9.6875,3.0625,-0.21960449,-0.2121582,-0.64263916,-0.70269775
1b,2,None,447625,1779733380494,-9.504943,-3.2969744,-5.522635,-28.563362,35.99624,-4.412381,25.716509,62.358707,211.72702,0.0
1b,1,None,3405643,1779733380517,-0.63,9.67,0.09,31.5,-11.375,7.9375,-0.2189331,-0.21551514,-0.6456909,-0.6990967
1b,1,None,3405659,1779733380518,-0.65,9.77,-0.11,31.25,-9.8125,10.5,-0.21826172,-0.21722412,-0.64715576,-0.6973877
1b,4,None,29408580,1779733380519,1.2316054,0.31096682,-0.6867401,-22.04496,-27.50889,-20.566273,-127.8184,-71.512,232.83965,0.0
1b,3,None,3205650,1779733380532,2.1178496,-6.5345025,-0.17706887,-84.09423,29.449697,102.16922,-109.036835,-53.43292,344.4978,0.0
1b,1,None,3405676,1779733380547,0.02,9.85,0.57,31.4375,-4.0,15.5625,-0.21490479,-0.222229,-0.6516113,-0.692688
1b,2,None,447685,1779733380559,-9.29916,-1.858888,0.31106696,-54.603363,-18.393759,44.72762,25.665785,62.41132,211.70421,0.0
1b,1,None,3405701,1779733380577,0.17,9.83,0.73,31.6875,-5.5,15.375,-0.21240234,-0.22570801,-0.654541,-0.6895752
1b,1,None,3405723,1779733380579,0.46,9.96,0.82,32.6875,-6.5,12.1875,-0.21038818,-0.22906494,-0.65753174,-0.68621826
1b,4,None,29408639,1779733380580,0.5783649,1.1915257,0.89491564,-6.99496,-38.848885,-18.746271,-127.86681,-71.54708,232.88792,0.0
1b,3,None,3205710,1779733380592,-1.1483535,-4.6274223,-0.6221339,54.645775,15.519699,78.509224,-108.97785,-53.349384,344.4574,0.0
1b,1,None,3405741,1779733380607,0.82,10.66,0.87,34.75,-4.5,3.0625,-0.20892334,-0.23150635,-0.6611328,-0.6824341
1b,2,None,447746,1779733380615,-8.480815,0.6870753,1.0025927,-7.773362,-31.763762,38.07762,25.685354,62.45663,211.72726,0.0
1b,1,None,3405760,1779733380637,1.86,8.68,0.26,34.5,-7.875,-11.0,-0.20910645,-0.23266602,-0.6651001,-0.67803955
1b,4,None,29408699,1779733380640,-1.3311076,0.65074706,1.2610176,24.22504,-28.978888,-39.676273,-127.88116,-71.56314,232.91478,0.0
1b,3,None,3205770,1779733380650,0.52422965,-7.979767,-1.7276179,20.275776,15.8696995,114.769226,-108.92856,-53.244957,344.41266,0.0
1b,1,None,3405786,1779733380667,0.82,10.41,0.1,35.3125,-9.625,-18.125,-0.21179199,-0.23284912,-0.6719971,-0.6703491
1b,1,None,3405800,1779733380669,1.85,11.29,0.74,42.125,-4.8125,-31.1875,-0.2130127,-0.2321167,-0.6748657,-0.66729736
1b,2,None,447805,1779733380673,-9.947615,0.5530773,0.3924229,-4.553362,-34.35376,18.967619,25.695993,62.504524,211.73846,0.0
1b,1,None,3405824,1779733380701,1.72,12.13,0.37,44.4375,-7.6875,-39.5,-0.2166748,-0.23059082,-0.6809082,-0.6604614
1b,4,None,29408759,1779733380701,-3.5636108,0.36360887,1.5026926,9.45504,-10.288889,-57.73627,-127.90032,-71.57696,232.9409,0.0
1b,1,None,3405847,1779733380726,1.88,13.31,-1.07,44.6875,-14.5,-48.75,-0.22155762,-0.22827148,-0.6871948,-0.6530762
1b,1,None,3405865,1779733380728,2.08,12.9,-0.05,44.5,-26.625,-59.3125,-0.23522949,-0.22662354,-0.69573975,-0.6397095
1b,2,None,447866,1779733380734,-9.583906,0.060155742,2.2420747,10.636637,-34.563763,17.847618,25.652256,62.554043,211.69655,0.0
1b,3,None,3205831,1779733380742,1.8905314,-5.067702,-1.5194423,-8.844223,16.7097,77.03922,-108.904366,-53.146923,344.38226,0.0
1b,1,None,3405884,1779733380758,0.99,11.59,-0.76,41.5,-42.9375,-67.8125,-0.24060059,-0.22576904,-0.6984253,-0.6350708
1b,4,None,29408819,1779733380760,-4.097211,1.2250246,0.9619147,14.98504,13.861112,-94.97627,-127.9448,-71.60746,232.99329,0.0
1b,1,None,3405904,1779733380787,0.2,10.93,-0.41,38.3125,-39.6875,-67.75,-0.2567749,-0.22283936,-0.7056885,-0.62164307
1b,1,None,3405932,1779733380788,-1.4,10.22,-0.07,33.0,-53.8125,-67.0625,-0.26818848,-0.22137451,-0.7095947,-0.61279297
1b,2,None,447925,1779733380793,-9.227375,2.2448027,-0.49292147,-61.88336,-25.11376,10.707619,25.696192,62.5962,211.75452,0.0
1b,3,None,3205890,1779733380802,3.3214393,-5.4816604,-2.6368904,55.485775,35.9597,57.43922,-108.890724,-53.060406,344.37585,0.0
1b,1,None,3405946,1779733380817,0.85,9.38,1.16,14.4375,-122.75,-66.1875,-0.28656006,-0.22485352,-0.7093506,-0.60339355
1b,4,None,29408879,1779733380820,-3.5899317,0.4641069,2.8235307,5.32504,17.36111,-111.986275,-127.96383,-71.647224,233.01921,0.0
1b,1,None,3405970,1779733380847,3.24,8.19,1.95,-11.75,-199.4375,-60.5625,-0.31481934,-0.2355957,-0.70196533,-0.59381104
1b,1,None,3405992,1779733380848,3.85,7.41,1.82,-17.875,-201.3125,-41.1875,-0.34429932,-0.24945068,-0.69073486,-0.5848999
1b,2,None,447986,1779733380854,-9.172341,0.38797247,2.3976083,14.8366375,-22.94376,6.997619,25.655085,62.650745,211.71281,0.0
1b,3,None,3205980,1779733380858,3.5679,-6.9652095,-3.7471604,26.645777,32.039696,3.6092224,-108.90376,-52.992332,344.3871,0.0
1b,1,None,3406006,1779733380877,1.86,7.18,2.09,-18.3125,-188.4375,-23.875,-0.36743164,-0.26416016,-0.6790161,-0.57806396
1b,4,None,29408939,1779733380879,-3.9919262,0.3707868,2.4000013,-3.98496,20.86111,-120.03628,-127.99357,-71.687294,233.05241,0.0
1b,1,None,3406037,1779733380907,1.77,7.0,0.01,-2.75,-77.5,15.75,-0.37823486,-0.27423096,-0.6717529,-0.5748291
1b,1,None,3406046,1779733380908,2.14,7.17,-0.43,12.6875,-4.9375,45.125,-0.37646484,-0.28125,-0.6694946,-0.57525635
1b,2,None,448045,1779733380914,-9.208233,0.20133227,2.5292134,18.056637,-12.793759,2.7976189,25.601007,62.708637,211.6587,0.0
1b,4,None,29409000,1779733380939,-5.164409,-2.3019958,1.8664017,22.335041,5.5311117,-134.73628,-128.0196,-71.71356,233.09317,0.0
1b,1,None,3406066,1779733380968,2.99,7.3,-1.11,17.8125,23.8125,70.3125,-0.36773682,-0.28833008,-0.6690674,-0.5779419
1b,1,None,3406092,1779733380970,4.21,7.77,-2.21,11.625,4.75,91.4375,-0.35717773,-0.2977295,-0.6668701,-0.5822754
1b,2,None,448106,1779733380973,-9.141234,0.6344332,2.7900312,16.236637,-9.293759,-10.642382,25.5471,62.769543,211.60356,0.0
1b,1,None,3406109,1779733380994,3.86,8.13,-2.31,-1.0625,-46.1875,105.9375,-0.3503418,-0.31237793,-0.65997314,-0.5866089
1b,1,None,3406126,1779733380995,2.5,8.78,-2.52,-10.5625,-102.375,115.5,-0.34936523,-0.33325195,-0.64764404,-0.5894165
1b,1,None,3406150,1779733381025,1.75,10.04,-1.74,-13.0,-143.3125,123.9375,-0.35247803,-0.3590088,-0.63134766,-0.5901489
1b,1,None,3406166,1779733381026,1.14,10.3,-1.42,-13.125,-157.25,133.4375,-0.35662842,-0.3875122,-0.61242676,-0.5895996
1b,4,None,29409059,1779733381029,-6.14786,-5.1494546,1.3758731,-8.88496,-12.598888,-136.97627,-128.06273,-71.7266,233.14151,0.0
1b,2,None,448166,1779733381033,-9.057485,0.06972703,2.4789643,16.726637,-2.57376,-11.482382,25.481018,62.8324,211.53777,0.0
1b,3,None,3206041,1779733381046,1.5363936,-7.1111717,-5.6207404,-50.354225,55.5597,5.7792206,-108.95259,-52.930122,344.4006,0.0
1b,1,None,3406190,1779733381060,-0.83,11.21,-0.75,-6.625,-136.625,138.875,-0.3581543,-0.41540527,-0.5933838,-0.5891113
1b,1,None,3406207,1779733381085,-2.9,10.6,-0.02,8.5,-84.8125,140.125,-0.3538208,-0.4393921,-0.5778198,-0.58984375
1b,1,None,3406234,1779733381086,-2.53,11.35,-0.19,17.875,-39.0,131.5625,-0.34381104,-0.45819092,-0.5663452,-0.5925293
1b,4,None,29409120,1779733381088,-5.422835,-6.695218,1.5481563,-47.94496,-7.908888,-102.956276,-128.08011,-71.728355,233.14973,0.0
1b,2,None,448225,1779733381093,-8.945023,0.38079396,2.3425734,9.166637,1.9062402,-2.8723812,25.438572,62.896126,211.49687,0.0
1b,3,None,3206204,1779733381102,1.1463637,-4.986346,-11.394622,83.41577,8.519699,24.329222,-109.08903,-52.826824,344.48248,0.0
1b,1,None,3406250,1779733381116,-1.96,11.08,-0.22,14.9375,-29.4375,115.9375,-0.333313,-0.47351074,-0.55682373,-0.59552
1b,1,None,3406267,1779733381145,-2.84,10.77,0.38,4.375,-53.125,95.0,-0.3269043,-0.48791504,-0.54681396,-0.5966797
1b,4,None,29409209,1779733381148,-4.793522,-5.9247293,2.1080768,11.62504,-18.828888,-29.80627,-128.0341,-71.71114,233.11356,0.0
1b,2,None,448286,1779733381153,-8.779918,-0.30833897,2.4789643,12.8766365,1.9762402,14.907619,25.36945,62.954475,211.4336,0.0
1b,3,None,3206280,1779733381163,1.7086767,-6.0511518,-8.26481,-85.07423,-33.9703,68.14922,-109.209404,-52.74963,344.55676,0.0
1b,1,None,3406294,1779733381176,-4.1,9.71,1.15,-6.8125,-80.6875,71.1875,-0.32635498,-0.50231934,-0.5357666,-0.5950928
1b,1,None,3406309,1779733381176,-5.5,9.55,1.94,-14.8125,-89.75,49.625,-0.32989502,-0.51538086,-0.52490234,-0.5916748
1b,1,None,3406340,1779733381205,-4.93,8.7,2.96,-16.875,-79.4375,26.75,-0.33843994,-0.52941895,-0.51190186,-0.5857544
1b,4,None,29409269,1779733381208,-5.4300127,-3.9793644,2.6943183,33.39504,-2.3788881,1.7637279,-127.95827,-71.696266,233.05272,0.0
1b,3,None,3206340,1779733381218,1.5196441,-2.2872417,-5.958128,-101.80423,-30.260302,71.159225,-109.35386,-52.691357,344.6445,0.0
1b,1,None,3406357,1779733381236,-5.94,7.56,3.67,-23.3125,-43.3125,7.1875,-0.34484863,-0.5349121,-0.5050049,-0.58306885
1b,1,None,3406377,1779733381236,-6.37,8.1,2.87,-20.6875,-7.9375,0.0625,-0.34802246,-0.53533936,-0.501709,-0.58361816
1b,2,None,448345,1779733381242,-8.968951,0.6535758,2.5507488,6.2266383,10.586241,26.527618,25.352253,63.016262,211.42087,0.0
1b,1,None,3406399,1779733381265,-7.44,15.91,-5.76,-6.0625,8.125,-15.125,-0.3493042,-0.53125,-0.5058594,-0.5830078
1b,4,None,29409330,1779733381268,-7.0236325,-1.8401808,3.0460632,10.50504,-6.578888,-13.636272,-127.92559,-71.69165,233.02667,0.0
1b,3,None,3206400,1779733381278,1.409574,-2.5097742,-5.970093,-37.054222,-16.5403,61.429222,-109.46884,-52.63489,344.72464,0.0
1b,1,None,3406416,1779733381295,13.53,16.65,-4.25,-7.1875,5.8125,-61.125,-0.3538208,-0.52404785,-0.51293945,-0.5805664
1b,1,None,3406438,1779733381296,0.21,12.18,-3.19,-33.9375,-24.8125,-48.6875,-0.36517334,-0.5204468,-0.51171875,-0.57788086
1b,2,None,448406,1779733381303,-9.000057,1.2469958,2.2971096,12.946638,14.576241,28.837618,25.389664,63.075924,211.45529,0.0
1b,1,None,3406456,1779733381325,-2.06,3.77,-0.49,-37.25,-19.4375,-75.0625,-0.37939453,-0.51501465,-0.5118408,-0.5734863
1b,4,None,29409389,1779733381329,-8.6052885,-3.740082,0.6891329,15.125039,-0.83888817,-53.18627,-127.92159,-71.68702,233.03154,0.0
1b,3,None,3206460,1779733381343,1.1104712,-6.2569346,-6.0107703,-7.2342234,-5.1303005,77.87922,-109.52764,-52.545883,344.76486,0.0
1b,1,None,3406486,1779733381359,1.69,9.95,0.86,-38.5,-32.625,-46.6875,-0.38983154,-0.5106201,-0.5109253,-0.571228
1b,1,None,3406496,1779733381359,1.08,10.82,2.14,-38.0625,-31.875,-45.0,-0.40057373,-0.5075073,-0.50860596,-0.5686035
1b,2,None,448496,1779733381364,-9.571942,2.9578638,0.808774,15.676638,28.436241,25.547619,25.508263,63.12508,211.56175,0.0
1b,1,None,3406518,1779733381389,-0.18,9.62,1.16,-21.125,3.125,-35.4375,-0.40740967,-0.5032959,-0.50878906,-0.5673218
1b,4,None,29409449,1779733381389,-7.662516,-7.6930246,-0.16510476,35.49504,4.4811115,-30.436272,-127.87102,-71.665726,232.99698,0.0
1b,3,None,3206520,1779733381404,2.7351978,-7.3193483,-5.156533,-10.454224,-4.5003004,100.69922,-109.569,-52.445404,344.78854,0.0
1b,1,None,3406536,1779733381419,-0.79,10.82,-0.62,-8.9375,40.125,-25.625,-0.40795898,-0.49694824,-0.5124512,-0.56921387
1b,1,None,3406560,1779733381419,1.94,9.42,-0.78,-11.1875,37.5625,-23.0625,-0.4099121,-0.4923706,-0.51397705,-0.57037354
1b,2,None,448555,1779733381424,-11.828374,1.1967466,3.0245278,3.0766377,18.42624,6.087619,25.506222,63.191578,211.5611,0.0
1b,1,None,3406576,1779733381447,0.96,9.59,0.37,-25.0625,-20.75,-16.9375,-0.41448975,-0.4902954,-0.5124512,-0.5703125
1b,3,None,3206581,1779733381461,1.5172511,-5.842976,-4.2352962,48.555775,-9.1203,78.22922,-109.59389,-52.350346,344.81793,0.0
1b,1,None,3406600,1779733381477,0.74,9.53,0.5,-22.1875,-32.0,-17.3125,-0.4208374,-0.4901123,-0.5093994,-0.5685425
1b,1,None,3406617,1779733381478,0.14,9.79,0.73,-15.25,-17.875,-13.375,-0.42565918,-0.4899292,-0.50720215,-0.5670166
1b,4,None,29409509,1779733381480,-7.1193457,-8.506584,1.1509477,90.30504,0.56111145,25.003729,-127.7553,-71.63134,232.91534,0.0
1b,2,None,448616,1779733381484,-8.861274,0.9431073,0.91884387,74.47664,19.33624,7.347619,25.563368,63.25594,211.59128,0.0
1b,1,None,3406637,1779733381506,0.5,9.68,0.47,-9.375,0.375,-10.1875,-0.42785645,-0.48858643,-0.506897,-0.5668335
1b,3,None,3206640,1779733381520,1.2516478,-6.300005,-4.5320063,78.23577,-15.070301,55.47922,-109.612144,-52.26102,344.8531,0.0
1b,1,None,3406662,1779733381537,0.42,9.82,-0.04,-6.125,8.75,-5.0625,-0.42816162,-0.4866333,-0.5074463,-0.567749
1b,1,None,3406679,1779733381539,0.79,9.86,0.31,-5.3125,3.875,-1.25,-0.42834473,-0.48547363,-0.50756836,-0.5685425
1b,4,None,29409569,1779733381540,-6.6144605,-7.8892365,-1.3184452,74.69504,11.971111,80.723724,-127.61678,-71.57447,232.80219,0.0
1b,2,None,448675,1779733381544,-7.279618,1.74231,2.0985055,62.92664,0.71624017,-2.242381,25.659252,63.30276,211.65706,0.0
1b,1,None,3406701,1779733381567,0.54,9.62,0.29,-4.6875,-6.625,-0.1875,-0.42913818,-0.48547363,-0.5067749,-0.5686035
1b,1,None,3406718,1779733381597,0.45,9.73,0.35,-2.25,-6.8125,1.125,-0.4307251,-0.48590088,-0.5058594,-0.5678711
1b,4,None,29409659,1779733381601,-6.0808606,-0.66291213,-1.5744772,-26.38496,-9.028889,54.40373,-127.615845,-71.53607,232.78969,0.0
1b,2,None,448736,1779733381605,-7.258083,0.4454002,0.124426775,92.396645,14.786241,-37.45238,25.68829,63.373943,211.6499,0.0
1b,1,None,3406744,1779733381627,0.5,9.62,0.29,1.6875,-0.3125,1.6875,-0.4315796,-0.4854126,-0.50616455,-0.5673828
1b,1,None,3406760,1779733381629,0.52,9.76,0.08,4.375,3.875,2.625,-0.43096924,-0.4845581,-0.5074463,-0.5673828
1b,3,None,3206700,1779733381647,0.24426937,-7.316955,-3.735196,26.155777,-19.2003,49.59922,-109.62397,-52.16878,344.86993,0.0
1b,1,None,3406789,1779733381663,1.15,9.6,0.23,5.4375,3.3125,1.9375,-0.43011475,-0.48468018,-0.5081177,-0.5673218
1b,2,None,448795,1779733381664,-7.1384416,0.12236913,1.0624132,18.896637,3.1662402,-45.152378,25.6459,63.44493,211.59996,0.0
1b,1,None,3406805,1779733381687,0.99,9.53,0.32,7.3125,-0.375,-0.875,-0.42913818,-0.48510742,-0.5095825,-0.56640625
1b,1,None,3406824,1779733381690,0.83,9.61,0.24,10.5,-2.4375,-4.3125,-0.4290161,-0.4854126,-0.5101929,-0.5656738
1b,4,None,29409719,1779733381691,-6.3512497,-1.2491537,-1.617548,-50.88496,-16.37889,6.733728,-127.652916,-71.50699,232.80896,0.0
1b,1,None,3406848,1779733381716,0.93,9.68,-0.04,14.625,-3.8125,-10.375,-0.42919922,-0.48608398,-0.5130615,-0.5623779
1b,2,None,448856,1779733381723,-7.698362,1.5365273,3.1513476,-50.403362,-34.28376,-28.422382,25.609055,63.49665,211.57642,0.0
1b,3,None,3206864,1779733381728,1.0841502,-6.6230364,-3.019742,26.505777,-19.7603,31.95922,-109.65173,-51.98763,344.90616,0.0
1b,1,None,3406867,1779733381747,1.34,9.71,0.22,15.8125,-7.0625,-19.0625,-0.4298706,-0.48620605,-0.5154419,-0.5595703
1b,1,None,3406894,1779733381749,0.43,9.77,-0.09,13.6875,-4.4375,-16.75,-0.4309082,-0.48632812,-0.5177002,-0.5565796
1b,4,None,29409779,1779733381749,-5.607082,-3.3907297,-0.84466636,-33.17496,-16.658888,-11.956272,-127.65889,-71.47735,232.80592,0.0
1b,1,None,3406911,1779733381777,0.27,9.85,0.0,11.8125,1.75,-15.5,-0.43121338,-0.48553467,-0.5205078,-0.55444336
1b,2,None,448916,1779733381784,-9.00245,-7.369559,-1.0624132,19.246637,-20.42376,25.757618,25.519802,63.545296,211.49275,0.0
1b,1,None,3406927,1779733381807,0.66,9.85,0.03,12.3125,15.75,-11.1875,-0.43029785,-0.48431396,-0.5234375,-0.55352783
1b,1,None,3406950,1779733381810,0.65,10.35,-0.03,14.875,24.6875,-10.25,-0.42822266,-0.48223877,-0.5272217,-0.5532837
1b,4,None,29409870,1779733381810,-6.3799634,-3.5486565,-0.21535404,-28.27496,17.571112,19.403728,-127.60937,-71.45076,232.74675,0.0
1b,1,None,3406972,1779733381836,1.37,11.21,-0.51,18.875,27.8125,-15.5625,-0.42523193,-0.47937012,-0.53234863,-0.5531616
1b,2,None,448975,1779733381843,-8.3420315,2.2998376,0.63649076,0.90663767,-40.793762,34.85762,25.6114,63.57382,211.57664,0.0
1b,1,None,3406993,1779733381867,1.32,12.48,-1.43,25.0,26.0625,-16.8125,-0.42242432,-0.47711182,-0.5377197,-0.552124
1b,1,None,3407010,1779733381868,1.16,12.75,-2.77,26.625,13.125,-24.0,-0.42089844,-0.47540283,-0.5432129,-0.5493164
1b,4,None,29409929,1779733381868,-10.586545,-0.9213369,0.40917268,13.795039,-5.1788883,7.153728,-127.59523,-71.43527,232.73788,0.0
1b,3,None,3206883,1779733381877,1.7038913,-5.618051,-3.0843484,28.955776,-19.5503,25.799221,-109.6765,-51.903854,344.9357,0.0
1b,1,None,3407034,1779733381896,2.17,13.41,-3.09,32.0625,-0.375,-30.4375,-0.42114258,-0.47460938,-0.55133057,-0.54174805
1b,2,None,449036,1779733381902,-9.454693,0.78996664,2.457429,7.206638,-36.52376,18.547619,25.589046,63.62171,211.55452,0.0
1b,1,None,3407050,1779733381925,3.07,14.41,-2.1,38.125,-10.9375,-35.1875,-0.42175293,-0.47479248,-0.55407715,-0.53826904
1b,4,None,29409989,1779733381928,-10.060124,-0.44995093,2.225325,11.48504,26.881111,-47.656273,-127.57959,-71.44725,232.72772,0.0
1b,1,None,3407075,1779733381955,3.25,12.54,-1.28,30.5,-21.75,-48.3125,-0.42730713,-0.47442627,-0.5610962,-0.5267334
1b,1,None,3407098,1779733381956,0.75,10.36,-0.88,18.6875,-18.5625,-41.25,-0.43103027,-0.47338867,-0.56463623,-0.520874
1b,2,None,449095,1779733381963,-9.686797,0.8880724,3.3379877,-53.693363,-10.27376,15.047619,25.507286,63.676884,211.49945,0.0
1b,1,None,3407115,1779733381985,1.08,8.26,-1.64,16.6875,-21.75,-37.6875,-0.43585205,-0.47351074,-0.56689453,-0.5142822
1b,4,None,29410049,1779733381988,-6.604889,-5.8218374,2.5435705,48.02504,21.77111,-78.806274,-127.52932,-71.45495,232.69939,0.0
1b,3,None,3207074,1779733382004,-3.6416743,-4.902597,-9.4325075,-27.114223,5.0896997,122.189224,-109.801186,-51.73515,345.02356,0.0
1b,1,None,3407137,1779733382020,0.87,5.17,-2.29,7.875,-65.9375,-22.875,-0.44299316,-0.47668457,-0.56536865,-0.506897
1b,1,None,3407157,1779733382021,2.01,4.71,-2.42,8.375,-97.25,-3.5,-0.45141602,-0.4837036,-0.56036377,-0.49822998
1b,2,None,449156,1779733382023,-9.236947,1.890665,1.5577275,-3.7133622,-26.09376,-0.07238102,25.555668,63.720592,211.54224,0.0
1b,1,None,3407183,1779733382045,3.03,3.85,-1.17,17.9375,-95.625,27.125,-0.45770264,-0.49487305,-0.55267334,-0.49005127
1b,4,None,29410109,1779733382049,-4.6643095,-8.872686,2.7397819,25.555038,4.2711115,-49.616272,-127.46036,-71.44533,232.64546,0.0
1b,1,None,3407202,1779733382076,1.53,4.3,-1.41,30.625,-34.875,62.0,-0.45629883,-0.5064697,-0.54589844,-0.48712158
1b,1,None,3407223,1779733382076,1.3,5.41,-1.73,53.9375,56.6875,91.9375,-0.44195557,-0.5149536,-0.5452881,-0.49206543
1b,2,None,449215,1779733382083,-9.062271,1.0029279,2.3712873,-4.973362,-16.08376,1.817619,25.540592,63.776375,211.52945,0.0
1b,1,None,3407237,1779733382105,2.23,6.17,-0.96,70.125,140.8125,127.6875,-0.41485596,-0.5206299,-0.54919434,-0.50512695
1b,4,None,29410169,1779733382108,-3.9321058,-7.7145605,2.8402805,-50.394962,-20.998888,12.963728,-127.39695,-71.41485,232.56964,0.0
1b,3,None,3207224,1779733382128,4.690134,-1.3660052,-4.1180477,19.505777,-13.390301,97.409225,-109.98205,-51.614468,345.1422,0.0
1b,1,None,3407260,1779733382136,2.74,7.11,0.0,67.0,179.9375,154.8125,-0.37957764,-0.5239868,-0.553833,-0.5239868
1b,1,None,3407278,1779733382136,1.81,10.2,-0.22,43.25,156.5,168.875,-0.34466553,-0.527771,-0.5536499,-0.54418945
1b,2,None,449276,1779733382146,-8.744025,1.3259588,2.210968,3.216638,-11.39376,7.4176188,25.56344,63.829613,211.54922,0.0
1b,1,None,3407301,1779733382165,-2.49,10.22,-0.61,16.6875,83.0625,157.625,-0.317688,-0.5343628,-0.5471802,-0.5604248
1b,1,None,3407318,1779733382195,-5.96,11.55,1.17,-0.875,8.875,120.8125,-0.3010254,-0.54248047,-0.5383301,-0.5703125
1b,1,None,3407345,1779733382196,-7.52,9.64,3.21,-7.625,-31.9375,76.8125,-0.29534912,-0.55670166,-0.5241699,-0.57281494
1b,4,None,29410229,1779733382199,-6.159824,-4.9676003,3.0652056,-25.54496,-47.248886,25.493729,-127.36265,-71.382515,232.53113,0.0
1b,2,None,449335,1779733382203,-9.265661,0.95028573,2.5268207,-2.243362,-5.3037596,6.997619,25.546001,63.88854,211.53488,0.0
1b,1,None,3407363,1779733382225,-4.83,8.96,3.67,-19.3125,-63.5625,25.4375,-0.2979126,-0.56048584,-0.52038574,-0.57128906
1b,3,None,3207346,1779733382238,2.0628147,-1.4688965,-5.35753,-44.334225,-7.9303007,55.68922,-110.17791,-51.571712,345.28787,0.0
1b,1,None,3407378,1779733382255,-4.35,8.28,3.43,-27.25,-79.875,-7.3125,-0.3071289,-0.5665283,-0.5140991,-0.5661011
1b,1,None,3407401,1779733382256,19.26,9.97,-20.78,-26.0625,-52.3125,-17.625,-0.3166504,-0.5696411,-0.5095825,-0.5617676
1b,4,None,29410290,1779733382259,-10.179766,-5.972585,2.2971096,32.765038,-34.998886,-3.626272,-127.333755,-71.35776,232.51793,0.0
1b,2,None,449395,1779733382262,-8.794274,0.74689585,2.675176,3.916638,1.4162402,19.457619,25.51247,63.948,211.50633,0.0
1b,1,None,3407418,1779733382286,24.68,19.9,-16.23,45.375,-23.5,3.6875,-0.3168335,-0.57263184,-0.5116577,-0.55670166
1b,3,None,3207468,1779733382303,-0.655432,-2.5025961,-7.925029,34.415775,-21.860302,55.969223,-110.39229,-51.486423,345.45657,0.0
1b,1,None,3407447,1779733382319,-12.53,8.5,6.77,8.25,-35.125,72.0,-0.31323242,-0.5855713,-0.501709,-0.5543213
1b,4,None,29410379,1779733382319,-8.92832,-6.3482585,2.053042,26.11504,9.941112,-6.916272,-127.26708,-71.341576,232.463,0.0
1b,2,None,449456,1779733382324,-9.536049,0.610505,3.4959137,-2.593362,2.2562404,24.007618,25.4202,64.00022,211.4277,0.0
1b,1,None,3407465,1779733382346,4.63,8.41,7.76,-12.1875,4.25,-65.4375,-0.32244873,-0.5755615,-0.50805664,-0.55371094
1b,1,None,3407491,1779733382348,1.47,8.81,-1.35,-27.75,-28.0,-24.125,-0.32867432,-0.5720825,-0.5076904,-0.5540161
1b,3,None,3207487,1779733382361,-1.3589216,-3.1343012,-8.121241,15.305777,-22.1403,41.199223,-110.483444,-51.422203,345.53345,0.0
1b,4,None,29410439,1779733382380,-8.985747,-5.8912296,1.5768701,8.96504,5.601112,24.023727,-127.19539,-71.315216,232.39594,0.0
1b,2,None,449515,1779733382384,-9.069449,2.1084118,1.9357935,-26.043362,18.77624,0.27761889,25.49066,64.05382,211.50049,0.0
1b,1,None,3407505,1779733382406,2.14,7.43,1.48,-17.4375,-19.5625,-33.375,-0.33441162,-0.5704956,-0.50805664,-0.5518799
1b,1,None,3407527,1779733382409,0.92,10.11,0.6,-0.3125,53.125,-13.1875,-0.33276367,-0.5654297,-0.51123047,-0.5551758
1b,1,None,3407549,1779733382436,3.82,9.52,-3.37,2.875,55.75,-16.875,-0.32867432,-0.55841064,-0.5166626,-0.55963135
1b,1,None,3407569,1779733382437,3.05,9.06,-2.56,-4.8125,25.0,-15.625,-0.32946777,-0.555542,-0.5180664,-0.560791
1b,4,None,29410500,1779733382440,-7.975976,-5.0992055,1.1102697,-7.83496,13.511112,22.133728,-127.12695,-71.29032,232.3258,0.0
1b,2,None,449576,1779733382444,-9.028771,1.6777039,1.9764715,8.816637,1.6962402,-6.3723807,25.538094,64.10882,211.53961,0.0
1b,3,None,3207541,1779733382457,-0.47597033,-1.9713893,-5.6685967,10.265777,-15.4203005,47.84922,-110.57731,-51.360836,345.6091,0.0
1b,1,None,3407589,1779733382472,2.35,9.51,-1.86,-14.3125,-21.0,-13.6875,-0.33294678,-0.5548096,-0.517395,-0.5600586
1b,1,None,3407612,1779733382472,1.66,9.44,-0.49,-12.3125,-31.5,-8.375,-0.3380127,-0.55633545,-0.5150757,-0.5576172
1b,1,None,3407634,1779733382496,1.14,9.86,-0.83,-8.3125,-11.75,-3.1875,-0.34088135,-0.55700684,-0.5136719,-0.5564575
1b,4,None,29410559,1779733382499,-7.0044904,-3.8429732,1.1629118,-5.45496,11.2711115,19.893728,-127.063705,-71.26786,232.26176,0.0
1b,2,None,449635,1779733382504,-9.100555,2.1395185,2.658426,-0.913362,8.06624,-1.052381,25.621286,64.156265,211.61514,0.0
1b,3,None,3207600,1779733382513,-1.0765684,-4.670493,-4.5487556,24.545776,2.0796995,38.74922,-110.61494,-51.28089,345.64175,0.0
1b,1,None,3407651,1779733382529,1.98,9.34,-0.81,-1.75,17.3125,1.375,-0.34033203,-0.55596924,-0.51379395,-0.55773926
