session_name,device_id,body_location,device_ts_ms,wall_clock_ms,accel_x,accel_y,accel_z,gyro_x,gyro_y,gyro_z,quat_w,quat_x,quat_y,quat_z
1c,4,None,29612974,1779733584958,6.431209,-1.8210382,-1.9860427,-2.44496,6.8611116,2.533728,-136.14258,-67.127884,238.87558,0.0
1c,1,None,3610042,1779733584958,-9.59,-1.61,-0.38,0.0625,0.4375,0.4375,-0.5615845,0.5120239,-0.5048218,-0.40942383
1c,1,None,3610062,1779733584960,-9.58,-1.61,-0.36,0.5,-0.375,0.1875,-0.5615845,0.5119629,-0.5048218,-0.40948486
1c,2,None,652051,1779733584960,-8.105142,0.5219705,4.8885365,-6.723362,-2.0137596,2.097619,6.798984,58.647503,201.01712,0.0
1c,3,None,3410076,1779733584960,15.895722,-7.6040936,-4.5415773,-2.8942237,-14.300301,50.43922,-108.01342,-57.100548,340.9621,0.0
1c,1,None,3610080,1779733584965,-9.59,-1.66,-0.3,0.4375,-1.0,0.25,-0.5616455,0.5119629,-0.50476074,-0.40948486
1c,1,None,3610100,1779733584970,-9.59,-1.63,-0.3,0.25,-0.9375,0.1875,-0.56170654,0.51190186,-0.5046387,-0.40960693
1c,4,None,29613035,1779733584973,6.424031,-1.8736802,-2.0434706,-3.84496,6.161112,0.7837279,-136.24547,-67.09304,238.96849,0.0
1c,2,None,652141,1779733585018,-8.059678,0.54829156,4.9603214,-6.303362,-1.3837599,1.887619,6.7370462,58.59644,200.96643,0.0
1c,3,None,3410136,1779733585019,17.28356,-7.881662,-4.5296135,-23.404224,-14.1603,70.52922,-108.107475,-57.125896,341.03265,0.0
1c,1,None,3610145,1779733585029,-9.58,-1.64,-0.37,0.6875,-1.0625,-0.0625,-0.5620117,0.5115967,-0.50445557,-0.409729
1c,1,None,3610124,1779733585029,-9.59,-1.65,-0.34,0.4375,-1.0625,0.125,-0.56188965,0.5117798,-0.5045166,-0.409729
1c,4,None,29613094,1779733585029,6.3881383,-1.7875386,-1.9094725,-5.31496,4.201112,1.693728,-136.3087,-67.15969,239.02446,0.0
1c,1,None,3610163,1779733585057,-9.64,-1.59,-0.32,0.8125,-1.25,-0.125,-0.5621948,0.5114746,-0.50439453,-0.40979004
1c,1,None,3610186,1779733585057,-9.57,-1.65,-0.26,0.75,-2.125,-0.25,-0.56243896,0.51123047,-0.50427246,-0.40985107
1c,2,None,652201,1779733585062,-8.023786,0.5387203,4.9028935,-5.253362,-1.2437598,1.7476189,6.6348276,58.557884,200.88106,0.0
1c,3,None,3410196,1779733585068,16.867208,-7.974982,-4.314259,21.605776,-20.110302,81.37923,-108.186775,-57.146847,341.1044,0.0
1c,1,None,3610214,1779733585095,-9.53,-1.67,-0.26,0.75,-2.0,-0.25,-0.5626831,0.51104736,-0.5041504,-0.40997314
1c,1,None,3610231,1779733585095,-9.61,-1.67,-0.22,0.625,-2.0,0.0625,-0.5629883,0.5107422,-0.50390625,-0.41015625
1c,4,None,29613155,1779733585096,6.294818,-1.7588246,-1.89033,-5.38496,6.581112,-1.4562719,-136.39638,-67.22614,239.10309,0.0
1c,1,None,3610253,1779733585122,-9.56,-1.63,-0.3,0.6875,-2.0625,-0.125,-0.5632324,0.5105591,-0.5037842,-0.41027832
1c,2,None,652261,1779733585123,-8.126677,0.56982696,4.9028935,-5.043362,-0.61375976,1.607619,6.632057,58.61536,200.88048,0.0
1c,3,None,3410256,1779733585131,15.89333,-7.206885,-3.641876,30.985777,-9.190301,74.58922,-108.241035,-57.183636,341.15634,0.0
1c,1,None,3610274,1779733585148,-9.59,-1.61,-0.28,0.9375,-2.375,-0.125,-0.5635376,0.51031494,-0.5036011,-0.4104004
1c,4,None,29613214,1779733585158,6.25414,-1.7540392,-1.9812572,-6.01496,6.0911117,-1.316272,-136.54659,-67.21738,239.23921,0.0
1c,1,None,3610299,1779733585180,-9.55,-1.72,-0.26,1.0,-2.75,-0.1875,-0.5638428,0.51000977,-0.50341797,-0.4105835
1c,1,None,3610320,1779733585180,-9.54,-1.67,-0.17,0.5,-3.1875,0.0625,-0.56414795,0.5097656,-0.5031738,-0.4107666
1c,2,None,652321,1779733585187,-8.071642,0.54589874,4.9579287,-4.763362,0.22624022,2.167619,6.576507,58.563675,200.83488,0.0
1c,3,None,3410316,1779733585187,14.962522,-7.6567354,-3.2398818,58.425777,13.349699,63.31922,-108.2728,-57.227665,341.19403,0.0
1c,1,None,3610334,1779733585205,-9.6,-1.64,-0.08,0.25,-2.8125,0.25,-0.5643921,0.5095215,-0.50286865,-0.41107178
1c,4,None,29613275,1779733585214,6.256533,-1.6918256,-1.8759729,-6.08496,5.8811116,-4.3962717,-136.65382,-67.28188,239.33603,0.0
1c,1,None,3610362,1779733585240,-9.68,-1.65,-0.1,-0.0625,-1.4375,0.25,-0.5645752,0.5093994,-0.50268555,-0.41119385
1c,1,None,3610381,1779733585240,-9.53,-1.7,-0.12,-0.25,-0.5,0.25,-0.5645752,0.5093994,-0.50268555,-0.41125488
1c,2,None,652381,1779733585243,-8.121891,0.6392188,4.792824,-2.663362,1.3462402,2.587619,6.648761,58.61213,200.89784,0.0
1c,3,None,3410375,1779733585247,14.223139,-8.257334,-2.6392832,96.15577,30.149698,48.129223,-108.19028,-57.28234,341.1446,0.0
1c,1,None,3610401,1779733585266,-9.56,-1.65,-0.17,-0.5,-0.5625,0.5,-0.56463623,0.5093384,-0.5026245,-0.41125488
1c,4,None,29613334,1779733585268,6.0268226,-1.6367911,-1.835295,-4.05496,8.541112,-7.7562714,-136.80328,-67.33514,239.47258,0.0
1c,1,None,3610425,1779733585295,-9.65,-1.58,-0.15,-0.4375,-0.9375,0.4375,-0.56469727,0.50927734,-0.50250244,-0.41137695
1c,1,None,3610443,1779733585296,-9.61,-1.63,-0.22,-0.5625,-0.5625,0.25,-0.5647583,0.5092163,-0.50250244,-0.41137695
1c,2,None,652441,1779733585302,-8.11232,0.3927581,5.046463,-3.083362,1.0662402,4.057619,6.531783,58.582832,200.79967,0.0
1c,3,None,3410436,1779733585313,13.610576,-9.817454,-1.3974085,74.87577,46.8797,31.539223,-108.03679,-57.250755,341.02722,0.0
1c,1,None,3610463,1779733585329,-9.55,-1.67,-0.17,-0.5,-0.0625,0.3125,-0.5647583,0.5092163,-0.50250244,-0.41137695
1c,4,None,29613395,1779733585329,5.988537,-1.7851456,-1.9094725,-2.02496,11.411112,-5.0962715,-136.80923,-67.27739,239.47687,0.0
1c,1,None,3610487,1779733585354,-9.58,-1.65,-0.15,-0.6875,0.0,0.5,-0.56469727,0.50927734,-0.5024414,-0.411438
1c,2,None,652501,1779733585362,-8.030965,0.54829156,4.7880383,-4.623362,1.2762402,4.617619,6.532986,58.640793,200.80293,0.0
1c,3,None,3410496,1779733585371,12.648663,-9.358033,-1.7060825,9.775777,50.2397,22.36922,-107.913216,-57.20696,340.91586,0.0
1c,1,None,3610505,1779733585387,-9.59,-1.62,-0.19,-0.8125,0.25,0.5,-0.56463623,0.5093384,-0.5023804,-0.41149902
1c,1,None,3610530,1779733585387,-9.57,-1.64,-0.27,-0.6875,0.625,0.25,-0.56451416,0.50946045,-0.5024414,-0.41149902
1c,4,None,29613455,1779733585388,6.0483575,-1.8401808,-1.8592231,-1.32496,12.951112,-1.106272,-136.6715,-67.225006,239.34834,0.0
1c,1,None,3610550,1779733585414,-9.61,-1.64,-0.3,-0.3125,-0.125,0.375,-0.56451416,0.50946045,-0.5024414,-0.41149902
1c,2,None,652561,1779733585421,-8.176927,0.66314703,4.74736,-6.723362,0.7862402,4.057619,6.60152,58.68987,200.86423,0.0
1c,3,None,3410556,1779733585429,12.828123,-9.343676,-1.7252252,10.335776,34.8397,29.019222,-107.794785,-57.161617,340.81137,0.0
1c,1,None,3610570,1779733585445,-9.63,-1.62,-0.34,0.0,-0.75,0.375,-0.5645752,0.50946045,-0.5023804,-0.41156006
1c,4,None,29613514,1779733585448,6.1560345,-1.8497523,-2.0410776,-0.62495995,12.531112,3.093728,-136.7121,-67.17298,239.38411,0.0
1c,1,None,3610594,1779733585475,-9.59,-1.63,-0.22,0.375,-1.0,0.25,-0.56463623,0.5093384,-0.5022583,-0.4116211
1c,1,None,3610612,1779733585476,-9.64,-1.66,-0.19,0.5625,-1.0625,0.0,-0.56469727,0.50927734,-0.50219727,-0.41168213
1c,2,None,652621,1779733585484,-8.12907,0.7660385,4.7306104,-6.6533623,0.5062402,3.217619,6.710164,58.72486,200.95963,0.0
1c,3,None,3410616,1779733585488,13.883358,-9.970595,-1.416551,27.765776,21.679699,41.829224,-107.6694,-57.124626,340.7079,0.0
1c,1,None,3610628,1779733585505,-9.59,-1.69,-0.06,0.1875,-0.8125,0.125,-0.5647583,0.50927734,-0.50213623,-0.41174316
1c,4,None,29613575,1779733585508,6.203891,-1.658326,-2.0554345,-2.79496,10.151112,5.963728,-136.86026,-67.167946,239.51822,0.0
1c,1,None,3610654,1779733585535,-9.61,-1.68,-0.05,-0.25,-0.3125,0.3125,-0.5647583,0.50927734,-0.50213623,-0.41174316
1c,1,None,3610675,1779733585536,-9.58,-1.67,-0.23,-0.0625,0.5,0.5,-0.5647583,0.50927734,-0.50213623,-0.41174316
1c,2,None,652681,1779733585543,-8.179319,0.54829156,4.8646083,-7.563362,0.2962402,3.5676188,6.6677637,58.781326,200.92628,0.0
1c,3,None,3410676,1779733585548,16.017757,-9.566208,-1.174876,135.98578,10.689699,56.45922,-107.5178,-57.127018,340.61526,0.0
1c,1,None,3610693,1779733585567,-9.59,-1.66,-0.27,0.375,-0.5625,0.3125,-0.5647583,0.50927734,-0.50213623,-0.41174316
1c,4,None,29613634,1779733585569,6.1847486,-1.608077,-2.2157538,-8.6049595,5.181112,3.653728,-137.00243,-67.151276,239.64565,0.0
1c,1,None,3610721,1779733585596,-9.45,-1.68,-0.35,0.875,-1.375,0.3125,-0.5649414,0.50909424,-0.5020752,-0.4118042
1c,1,None,3610736,1779733585596,-9.51,-1.7,-0.23,0.875,-1.625,0.5,-0.5651245,0.50891113,-0.50201416,-0.41186523
1c,2,None,652741,1779733585602,-8.102749,0.6918609,4.7425747,-6.583362,-0.33375978,3.497619,6.7676272,58.819984,201.0143,0.0
1c,3,None,3410736,1779733585613,17.912872,-9.417853,0.5479564,253.65578,-21.3703,63.039223,-107.350685,-57.13341,340.5496,0.0
1c,1,None,3610753,1779733585630,-9.6,-1.65,-0.18,0.875,-1.4375,0.625,-0.5653076,0.508728,-0.5019531,-0.41192627
1c,1,None,3610774,1779733585630,-9.77,-1.61,-0.15,1.125,-1.0625,0.625,-0.5654907,0.50842285,-0.5019531,-0.4119873
1c,4,None,29613695,1779733585630,6.239783,-1.7660031,-2.0482562,-23.79496,-0.90888786,2.533728,-137.1297,-67.12046,239.7551,0.0
1c,1,None,3610794,1779733585656,-9.66,-1.58,-0.15,1.4375,-0.5,0.5,-0.5656128,0.50823975,-0.5020752,-0.4119873
1c,2,None,652801,1779733585663,-8.040535,0.66793275,4.65404,-3.2233622,-2.92376,3.987619,6.8430705,58.866226,201.08047,0.0
1c,3,None,3410796,1779733585673,16.687748,-11.408681,5.194818,244.41577,-15.2103,60.379223,-107.1763,-57.118504,340.47412,0.0
1c,1,None,3610814,1779733585687,-9.54,-1.71,-0.13,1.25,0.3125,0.4375,-0.56573486,0.5081177,-0.50213623,-0.41186523
1c,4,None,29613754,1779733585690,5.993323,-1.0888345,-1.7706887,-32.61496,-8.678888,-1.876272,-137.27675,-67.17446,239.88107,0.0
1c,1,None,3610841,1779733585716,-9.48,-1.72,-0.15,0.9375,0.0625,0.4375,-0.5657959,0.50805664,-0.50219727,-0.41174316
1c,1,None,3610859,1779733585718,-9.69,-1.64,-0.11,1.0625,-0.0625,0.8125,-0.56585693,0.50787354,-0.5023804,-0.41174316
1c,2,None,652861,1779733585724,-8.107534,0.6990394,4.8095737,-2.943362,-3.4837599,6.087619,6.979102,58.88356,201.19882,0.0
1c,3,None,3410856,1779733585729,12.706089,-11.951853,7.726424,67.52577,22.3797,77.31922,-107.04419,-57.091682,340.37463,0.0
1c,1,None,3610876,1779733585747,-9.66,-1.62,-0.12,1.0,0.1875,0.875,-0.56585693,0.5076904,-0.50250244,-0.41174316
1c,4,None,29613815,1779733585750,5.4118667,-1.105584,-1.8496519,-35.83496,-4.828888,-7.3362722,-137.46944,-67.19839,240.04834,0.0
1c,1,None,3610901,1779733585777,-9.67,-1.6,-0.04,1.125,0.5625,0.875,-0.56591797,0.5075073,-0.5026245,-0.41174316
1c,1,None,3610917,1779733585779,-9.71,-1.59,0.05,1.1875,1.875,0.75,-0.5657959,0.5074463,-0.5029297,-0.41156006
1c,2,None,652921,1779733585784,-8.31571,0.7301461,4.898108,-1.9633622,-9.083759,7.907619,7.103378,58.908512,201.30702,0.0
1c,3,None,3410916,1779733585788,9.368102,-6.5823584,2.7014968,-20.394224,13.699699,98.45922,-106.94046,-57.065163,340.27362,0.0
1c,1,None,3610936,1779733585807,-9.41,-1.76,0.13,0.6875,3.6875,0.875,-0.5657959,0.5074463,-0.5031738,-0.41137695
1c,4,None,29613875,1779733585811,6.39771,-1.1366911,-1.253839,-52.214962,-3.4288883,11.563728,-137.48419,-67.25495,240.0443,0.0
1c,1,None,3610961,1779733585838,-9.43,-1.8,0.11,-0.1875,4.9375,1.375,-0.56573486,0.50756836,-0.5032959,-0.41107178
1c,1,None,3610977,1779733585841,-9.64,-1.7,0.04,-0.6875,5.4375,2.0,-0.5654907,0.50775146,-0.50354004,-0.41088867
1c,2,None,652981,1779733585842,-8.284603,0.9646427,4.627719,-3.0133622,-9.293759,9.797619,7.215947,58.940292,201.40588,0.0
1c,3,None,3410976,1779733585848,13.59622,-4.5460663,3.1800613,-29.564224,-2.8903008,80.95922,-106.87452,-57.07439,340.20563,0.0
1c,1,None,3611006,1779733585865,-9.68,-1.61,-0.08,-0.6875,7.625,2.25,-0.56481934,0.50805664,-0.5042114,-0.4105835
1c,4,None,29613935,1779733585868,8.9197445,0.93310034,-0.74416786,-65.58496,-26.108889,23.533728,-137.55864,-67.30123,240.09189,0.0
1c,1,None,3611023,1779733585895,-9.57,-1.56,-0.33,-0.625,8.3125,2.25,-0.5635376,0.508667,-0.50561523,-0.40997314
1c,1,None,3611043,1779733585896,-9.72,-1.49,-0.51,-0.3125,6.875,2.0625,-0.56274414,0.5090332,-0.5064697,-0.4095459
1c,2,None,653041,1779733585902,-8.117106,1.0675341,4.790431,-0.21336222,-8.45376,7.767619,7.36529,58.937218,201.53508,0.0
1c,3,None,3411036,1779733585913,15.259232,-5.7592278,4.735396,-29.144224,4.0396996,29.299221,-106.80724,-57.09489,340.13828,0.0
1c,1,None,3611063,1779733585931,-9.56,-1.5,-0.69,0.25,5.3125,1.5625,-0.5621338,0.50927734,-0.5071411,-0.4091797
1c,4,None,29613995,1779733585931,7.280661,0.4282149,-0.7178468,-42.06496,-33.73889,-8.806272,-137.64551,-67.35389,240.16241,0.0
1c,1,None,3611085,1779733585955,-9.52,-1.63,-0.49,0.8125,3.3125,1.375,-0.56170654,0.5093994,-0.5076904,-0.40899658
1c,1,None,3611105,1779733585956,-9.51,-1.71,-0.28,0.8125,2.0625,1.375,-0.56152344,0.5093994,-0.50805664,-0.40881348
1c,3,None,3411096,1779733585971,17.16392,-16.134506,5.111069,83.20577,-64.8403,51.13922,-106.71366,-57.05893,340.09308,0.0
1c,1,None,3611129,1779733585988,-9.7,-1.6,0.09,0.125,3.1875,1.8125,-0.5611572,0.5093994,-0.5084839,-0.4086914
1c,4,None,29614054,1779733585988,5.86411,-3.067699,-0.39720857,-20.36496,-54.388885,-5.376272,-137.54062,-67.34329,240.0645,0.0
1c,2,None,653101,1779733585993,-7.4184017,0.8186806,5.2259245,-3.923362,-15.313759,5.6676188,7.3884068,58.87449,201.5567,0.0
1c,1,None,3611147,1779733586015,-9.74,-1.61,0.0,-0.875,5.6875,1.6875,-0.5605469,0.5097046,-0.5090332,-0.40844727
1c,3,None,3411156,1779733586030,9.863417,-10.037595,5.7643094,-197.91423,21.9597,94.88922,-106.671455,-57.022114,339.99048,0.0
1c,1,None,3611166,1779733586046,-9.45,-1.65,-0.37,-0.9375,6.8125,1.875,-0.5597534,0.5100708,-0.5097656,-0.4081421
1c,1,None,3611186,1779733586046,-9.57,-1.64,-0.44,-1.0625,6.1875,2.0,-0.55895996,0.510437,-0.51049805,-0.40789795
1c,4,None,29614115,1779733586048,5.0098724,-3.3835511,0.3876373,-41.50496,-45.91889,24.723728,-137.4274,-67.32726,239.94838,0.0
1c,2,None,653161,1779733586053,-8.272639,1.0101063,5.426922,2.9366384,-13.213759,7.557619,7.4624896,58.81702,201.62027,0.0
1c,1,None,3611211,1779733586075,-9.65,-1.49,-0.6,-1.0625,4.625,2.0,-0.5582886,0.5107422,-0.51104736,-0.40777588
1c,3,None,3411216,1779733586089,8.181262,-9.389139,-0.7537392,-123.43423,2.0796995,128.48923,-106.62893,-56.920662,339.9113,0.0
1c,1,None,3611228,1779733586105,-9.67,-1.47,-0.65,-1.0625,3.8125,1.4375,-0.55773926,0.5109863,-0.5114746,-0.4076538
1c,1,None,3611252,1779733586107,-9.63,-1.44,-0.74,-0.6875,2.625,0.9375,-0.5570679,0.5112915,-0.5120239,-0.4074707
1c,4,None,29614174,1779733586109,4.071886,-2.8284168,0.7896314,-53.26496,-24.498888,21.433727,-137.31723,-67.322365,239.82967,0.0
1c,2,None,653251,1779733586112,-7.5212927,0.92396474,5.6733823,2.8666377,-6.6337595,10.427619,7.488272,58.757195,201.64319,0.0
1c,1,None,3611273,1779733586136,-9.64,-1.46,-0.74,-0.375,1.625,0.375,-0.55682373,0.51153564,-0.51226807,-0.4072876
1c,3,None,3411276,1779733586149,11.500107,-10.162021,-2.0721843,-204.77423,-21.860302,142.97922,-106.64085,-56.80176,339.85757,0.0
1c,1,None,3611293,1779733586164,-9.59,-1.57,-0.63,0.3125,0.75,0.0625,-0.5567627,0.5115967,-0.5123291,-0.40716553
1c,4,None,29614235,1779733586168,3.8972096,-3.0509489,0.5694918,-110.45496,-1.8888884,33.823727,-137.20004,-67.31339,239.68277,0.0
1c,2,None,653311,1779733586172,-7.4782224,1.3570654,5.379065,4.4766383,-0.26375985,10.49762,7.5716505,58.705715,201.715,0.0
1c,1,None,3611313,1779733586195,-9.44,-1.7,-0.55,0.625,-0.8125,0.0,-0.5569458,0.51153564,-0.51220703,-0.4071045
1c,1,None,3611329,1779733586196,-9.52,-1.64,-0.24,0.3125,-2.25,0.6875,-0.55700684,0.5114136,-0.512146,-0.4072876
1c,3,None,3411336,1779733586207,12.036099,-6.099008,2.0219352,272.69577,-59.8003,117.98923,-106.47955,-56.781807,339.8068,0.0
1c,1,None,3611353,1779733586225,-9.71,-1.54,-0.17,-0.625,0.5625,0.6875,-0.55700684,0.5112915,-0.512146,-0.4074707
1c,1,None,3611373,1779733586227,-9.57,-1.58,-0.31,-0.6875,1.6875,0.5,-0.5567627,0.5114746,-0.51226807,-0.40740967
1c,4,None,29614294,1779733586228,7.397909,2.761217,0.62931234,-39.75496,-15.888887,47.96373,-137.23735,-67.35086,239.70113,0.0
1c,2,None,653371,1779733586232,-7.298761,1.4144933,5.2259245,2.586638,5.1262403,9.727619,7.6628585,58.658115,201.794,0.0
1c,1,None,3611393,1779733586254,-9.56,-1.55,-0.49,-1.0625,0.875,0.6875,-0.5565796,0.5115967,-0.5123291,-0.4074707
1c,3,None,3411396,1779733586272,10.645869,-21.915565,1.7754744,0.9557764,83.8397,88.44922,-106.35877,-56.70993,339.68588,0.0
1c,1,None,3611414,1779733586289,-9.67,-1.54,-0.52,-1.25,0.1875,0.125,-0.5563965,0.51171875,-0.5123291,-0.40753174
1c,4,None,29614355,1779733586289,7.345267,-4.2330036,0.6963114,37.45504,2.1011114,11.563728,-137.08437,-67.357765,239.57066,0.0
1c,2,None,653431,1779733586294,-7.791682,1.6250616,5.156533,-3.5033622,1.2062402,7.347619,7.7880526,58.623898,201.90332,0.0
1c,1,None,3611441,1779733586316,-9.29,-1.64,-0.52,-0.9375,-0.8125,0.25,-0.5563965,0.5118408,-0.512146,-0.40759277
1c,1,None,3611460,1779733586318,-9.51,-1.64,-0.45,-0.875,-1.0,0.25,-0.5563965,0.5118408,-0.5120239,-0.40777588
1c,3,None,3411456,1779733586330,10.124234,-7.123136,3.5940197,-46.994225,26.0197,99.71922,-106.261185,-56.68499,339.58044,0.0
1c,1,None,3611475,1779733586347,-9.51,-1.59,-0.54,-0.8125,-1.75,0.4375,-0.5564575,0.5118408,-0.5117798,-0.40795898
1c,4,None,29614415,1779733586350,8.103792,-1.1941186,-0.014356935,-1.53496,20.86111,45.37373,-136.99884,-67.40077,239.48483,0.0
1c,2,None,653491,1779733586354,-7.796468,1.7973449,4.9938207,-4.203362,-2.7837596,0.557619,7.922222,58.59896,202.01913,0.0
1c,1,None,3611495,1779733586377,-9.27,-1.68,-0.76,-0.25,-2.5,0.375,-0.5566406,0.5118408,-0.5115967,-0.40795898
1c,1,None,3611521,1779733586379,-9.54,-1.51,-0.86,-0.0625,-6.3125,1.125,-0.5570679,0.5114136,-0.51116943,-0.4085083
1c,3,None,3411516,1779733586389,12.335202,-9.822241,2.8498516,33.505775,-50.7703,33.56922,-106.18,-56.664795,339.5299,0.0
1c,1,None,3611536,1779733586407,-9.8,-1.41,-0.74,1.0625,-7.875,0.5625,-0.55773926,0.5107422,-0.51049805,-0.4091797
1c,4,None,29614475,1779733586410,7.7233334,-0.6868401,0.4881358,18.835041,-13.648888,-1.3862722,-136.96368,-67.44658,239.45982,0.0
1c,2,None,653551,1779733586414,-7.7007546,1.6418114,5.022535,-7.0733624,-6.4237595,-6.0223813,8.043733,58.56649,202.12369,0.0
1c,1,None,3611563,1779733586439,-9.25,-1.63,-0.61,2.5,-9.0625,-0.25,-0.5586548,0.50994873,-0.50982666,-0.40979004
1c,1,None,3611581,1779733586440,-9.32,-1.75,-0.18,2.4375,-11.1875,0.25,-0.55981445,0.50897217,-0.50897217,-0.41046143
1c,3,None,3411576,1779733586449,11.768104,-14.969201,5.4652066,114.91577,10.829699,1.3692207,-106.04998,-56.644356,339.45276,0.0
1c,1,None,3611608,1779733586465,-9.75,-1.63,0.29,1.375,-9.875,1.875,-0.5610962,0.50756836,-0.5079346,-0.4118042
1c,4,None,29614535,1779733586468,9.192526,-3.4673004,1.591227,-18.54496,0.28111172,2.323728,-136.86526,-67.47249,239.3627,0.0
1c,2,None,653611,1779733586473,-7.4064374,1.4025291,5.2402816,-4.763362,-5.9337597,-8.612381,8.120955,58.515694,202.18929,0.0
1c,1,None,3611624,1779733586495,-9.83,-1.54,0.4,-0.25,-3.6875,1.9375,-0.56134033,0.50701904,-0.5076904,-0.41241455
1c,3,None,3411636,1779733586507,7.633306,-13.334904,11.07159,-24.384224,42.9597,39.93922,-105.95454,-56.6235,339.3559,0.0
1c,1,None,3611649,1779733586525,-9.67,-1.57,0.14,-1.125,0.6875,1.4375,-0.56121826,0.506958,-0.5076904,-0.41271973
1c,4,None,29614594,1779733586528,6.636992,0.509571,-3.4337006,19.95504,1.6811113,-29.176273,-137.06116,-67.494125,239.5528,0.0
1c,2,None,653671,1779733586533,-8.004643,1.2469958,5.2546387,-3.153362,-5.7237597,-5.182381,8.218482,58.46996,202.2723,0.0
1c,1,None,3611674,1779733586555,-9.65,-1.51,-0.4,-1.6875,2.3125,1.6875,-0.56073,0.5070801,-0.5079346,-0.41278076
1c,1,None,3611684,1779733586556,-9.83,-1.38,-0.61,-1.625,1.5625,1.3125,-0.56036377,0.5072632,-0.5081177,-0.41296387
1c,3,None,3411696,1779733586572,11.705891,-4.926525,-7.6833534,-173.76422,20.489698,49.109222,-106.110344,-56.616352,339.429,0.0
1c,1,None,3611704,1779733586590,-9.6,-1.42,-0.76,-1.125,-0.3125,0.25,-0.56018066,0.50738525,-0.50805664,-0.41308594
1c,1,None,3611728,1779733586590,-9.59,-1.48,-0.57,-0.75,-2.9375,-0.3125,-0.56030273,0.5072632,-0.5078125,-0.41333008
1c,4,None,29614655,1779733586590,6.809275,-2.5245278,-1.8568304,-25.54496,-46.75889,-5.376272,-136.93228,-67.4571,239.43028,0.0
1c,2,None,653731,1779733586594,-8.059678,1.2804952,5.5728836,-3.363362,3.86624,1.187619,8.290978,58.419216,202.33537,0.0
1c,1,None,3611744,1779733586615,-9.64,-1.55,-0.25,-0.8125,-4.625,-0.625,-0.5606079,0.5070801,-0.5073242,-0.41375732
1c,3,None,3411756,1779733586630,4.9342017,-16.206291,2.065006,-272.04422,-10.3803005,66.67922,-106.14154,-56.543594,339.37405,0.0
1c,1,None,3611772,1779733586649,-9.59,-1.6,-0.29,-0.375,-4.125,-0.6875,-0.56103516,0.506897,-0.50683594,-0.4140625
1c,1,None,3611792,1779733586649,-9.7,-1.49,-0.31,0.625,-2.4375,-0.5625,-0.5612793,0.50665283,-0.5065918,-0.41430664
1c,4,None,29614714,1779733586649,6.345067,-3.103591,-1.2107683,15.615041,-72.86889,-1.4562719,-136.80815,-67.42408,239.32748,0.0
1c,2,None,653791,1779733586653,-7.250904,1.218282,5.369494,-6.583362,4.3562403,4.8976192,8.343377,58.36534,202.38297,0.0
1c,1,None,3611810,1779733586675,-9.61,-1.54,-0.3,0.875,-2.4375,-0.75,-0.5616455,0.5064697,-0.50634766,-0.41436768
1c,3,None,3411816,1779733586689,11.981065,-12.138493,-1.5409777,-82.76423,-6.4603004,73.259224,-106.102005,-56.456512,339.31424,0.0
1c,1,None,3611833,1779733586706,-9.42,-1.66,-0.21,0.5625,-3.8125,-0.75,-0.5621948,0.5062256,-0.50567627,-0.41467285
1c,1,None,3611852,1779733586706,-9.67,-1.54,-0.1,0.5,-3.625,-0.25,-0.56256104,0.50598145,-0.50531006,-0.414917
1c,4,None,29614775,1779733586710,8.156434,0.9235294,-0.22253251,-29.18496,-64.818886,24.163729,-136.87563,-67.459305,239.38397,0.0
1c,2,None,653851,1779733586713,-7.81561,1.3929579,5.1589255,-4.273362,4.0062404,4.267619,8.457302,58.327106,202.4821,0.0
1c,1,None,3611872,1779733586736,-9.58,-1.59,-0.02,0.75,-2.875,-0.5625,-0.5629883,0.50567627,-0.5050049,-0.4151001
1c,3,None,3411876,1779733586748,10.251054,-12.404096,-0.715454,-16.894224,2.4996996,86.48923,-106.02961,-56.370255,339.24396,0.0
1c,1,None,3611892,1779733586765,-9.45,-1.67,0.0,0.25,-2.625,-0.25,-0.5632324,0.50561523,-0.50476074,-0.41516113
1c,4,None,29614834,1779733586768,5.1989055,-2.8619163,-2.120041,10.01504,-44.65889,-5.9362717,-136.81232,-67.382805,239.3334,0.0
1c,2,None,653911,1779733586772,-7.751004,1.3809937,5.0536413,-5.463362,2.6762402,2.587619,8.576309,58.29188,202.58553,0.0
1c,1,None,3611916,1779733586795,-9.59,-1.66,0.06,-0.8125,-0.625,0.8125,-0.5637207,0.5053711,-0.5041504,-0.41552734
1c,1,None,3611932,1779733586796,-9.54,-1.64,0.05,-0.6875,0.0,1.0625,-0.5637207,0.50531006,-0.50408936,-0.4156494
1c,3,None,3411936,1779733586807,12.500307,-5.857333,1.0073783,85.37577,33.929703,67.86922,-105.90309,-56.387527,339.15347,0.0
1c,1,None,3611953,1779733586825,-9.54,-1.57,-0.18,-0.875,0.6875,1.8125,-0.56347656,0.5053711,-0.5042114,-0.41577148
1c,4,None,29614895,1779733586828,5.888038,-1.6846471,-0.65324056,-26.804958,-10.988888,60.35373,-136.69487,-67.40148,239.21144,0.0
1c,2,None,653971,1779733586832,-7.9089303,1.459957,5.091926,-7.143362,0.8562402,2.237619,8.702598,58.26145,202.6955,0.0
1c,1,None,3611976,1779733586855,-9.84,-1.41,-0.36,-0.875,0.5625,0.75,-0.5633545,0.5053711,-0.5042114,-0.4159546
1c,3,None,3411996,1779733586868,8.446866,-7.8720894,5.9485574,184.21577,62.6997,10.679222,-105.723915,-56.388294,339.04562,0.0
1c,1,None,3612000,1779733586886,-9.66,-1.45,-0.5,-0.1875,-0.75,0.125,-0.5633545,0.5053711,-0.5041504,-0.41601562
1c,1,None,3612013,1779733586887,-9.58,-1.57,-0.45,0.25,-2.5625,0.0,-0.5635376,0.505188,-0.5039673,-0.41619873
1c,4,None,29614955,1779733586889,4.7538404,3.2732818,0.4953143,24.785042,22.61111,-24.696272,-136.75012,-67.46224,239.27078,0.0
1c,1,None,3612036,1779733586917,-9.64,-1.49,-0.35,0.75,-2.9375,-0.125,-0.5637207,0.5050049,-0.50372314,-0.41638184
1c,1,None,3612058,1779733586918,-9.58,-1.54,-0.26,1.0,-3.75,-0.375,-0.5640869,0.50476074,-0.503479,-0.4165039
1c,3,None,3412056,1779733586933,14.546171,-20.75744,0.44267216,194.08577,16.2197,35.66922,-105.57573,-56.325512,338.97382,0.0
1c,1,None,3612076,1779733586950,-9.55,-1.59,-0.16,0.8125,-4.875,-0.25,-0.5645752,0.50439453,-0.5031128,-0.41680908
1c,4,None,29615015,1779733586951,5.7875395,-6.0347986,-4.443472,62.795036,-12.248888,-58.996273,-136.71605,-67.401085,239.26643,0.0
1c,2,None,654031,1779733586954,-7.894573,1.4360287,5.0751767,-6.373362,1.0662402,1.327619,8.828479,58.230984,202.8047,0.0
1c,1,None,3612098,1779733586975,-9.65,-1.63,0.14,0.5625,-4.9375,0.25,-0.56500244,0.5040283,-0.5026245,-0.41723633
1c,1,None,3612114,1779733586976,-9.7,-1.52,0.26,-0.6875,-2.375,0.625,-0.56518555,0.5037842,-0.5023804,-0.4175415
1c,3,None,3412116,1779733586992,4.8193464,-4.742278,1.7970098,17.405777,-54.4103,44.41922,-105.50396,-56.293762,338.92697,0.0
1c,4,None,29615075,1779733587009,8.972386,-0.82801676,-0.7800602,-6.22496,-63.698883,17.583727,-136.73994,-67.43794,239.29066,0.0
1c,2,None,654195,1779733587013,-7.9783216,1.1608541,5.065605,-6.233362,0.3662402,3.427619,9.051672,58.15387,202.9988,0.0
1c,1,None,3612138,1779733587035,-9.65,-1.52,0.07,-1.0625,-0.3125,0.5,-0.5651245,0.5038452,-0.50231934,-0.4177246
1c,1,None,3612161,1779733587036,-9.86,-1.41,-0.11,-1.5625,0.5,0.0625,-0.5650635,0.50390625,-0.50213623,-0.4179077
1c,1,None,3612177,1779733587037,-9.72,-1.52,-0.38,-1.1875,1.25,-0.75,-0.5648804,0.5041504,-0.50213623,-0.41784668
1c,3,None,3412176,1779733587047,11.744175,-9.061323,1.6797615,3.8957763,-31.3103,7.9492226,-105.42585,-56.283436,338.8686,0.0
1c,1,None,3612202,1779733587066,-9.56,-1.6,-0.34,-0.3125,0.9375,-0.8125,-0.56481934,0.5043335,-0.50213623,-0.41766357
1c,4,None,29615134,1779733587068,4.4714875,-3.6036909,-2.268396,25.34504,5.3211117,35.01373,-136.61722,-67.36354,239.18161,0.0
1c,2,None,654214,1779733587073,-7.947215,1.3020306,5.0560346,-7.213362,1.3462402,5.317619,9.179725,58.123447,203.1107,0.0
1c,1,None,3612223,1779733587095,-9.68,-1.55,0.01,-0.5,0.625,-0.25,-0.5647583,0.50439453,-0.50219727,-0.41760254
1c,3,None,3412236,1779733587107,9.473386,-18.489044,6.668797,-49.794224,41.6997,41.059223,-105.34084,-56.243465,338.7735,0.0
1c,1,None,3612246,1779733587125,-9.76,-1.53,-0.03,-0.1875,2.0625,-0.5625,-0.56463623,0.50445557,-0.50231934,-0.4175415
1c,1,None,3612265,1779733587126,-9.41,-1.66,-0.3,0.5625,2.75,-0.5,-0.56433105,0.50494385,-0.50268555,-0.4169922
1c,4,None,29615195,1779733587129,5.373582,1.2010967,-4.575077,-41.22496,16.731112,25.003729,-136.7929,-67.35745,239.32649,0.0
1c,2,None,654271,1779733587132,-7.825181,1.2924594,5.089534,-5.603362,3.0262403,6.857619,9.294326,58.084415,203.211,0.0
1c,3,None,3412296,1779733587167,10.667405,-7.9199467,1.9812572,-44.334225,45.549698,82.77922,-105.2322,-56.219894,338.65753,0.0
1c,1,None,3612285,1779733587185,-9.35,-1.68,-0.41,0.875,0.0,-0.1875,-0.56433105,0.50494385,-0.5028076,-0.41687012
1c,1,None,3612308,1779733587187,-9.53,-1.56,-0.21,0.6875,-1.5625,0.5,-0.56451416,0.50476074,-0.5026245,-0.4169922
1c,4,None,29615254,1779733587188,6.672884,-1.7516462,-3.531806,-40.664963,21.70111,-13.006271,-136.92024,-67.32974,239.43019,0.0
1c,2,None,654332,1779733587192,-8.054893,1.526956,4.907679,-9.313362,-3.1337595,1.887619,9.4339695,58.076607,203.33253,0.0
1c,1,None,3612326,1779733587215,-9.7,-1.55,0.16,-0.25,-2.25,0.3125,-0.5647583,0.50457764,-0.5024414,-0.4171753
1c,1,None,3612343,1779733587216,-9.63,-1.6,0.18,-0.5625,-0.5,0.3125,-0.56481934,0.5045166,-0.50231934,-0.41723633
1c,3,None,3412356,1779733587232,10.227126,-9.697813,0.7800602,-17.454224,13.9797,64.159225,-105.13438,-56.170975,338.5653,0.0
1c,1,None,3612368,1779733587250,-9.56,-1.67,0.04,-0.75,1.4375,0.9375,-0.56463623,0.5046387,-0.5024414,-0.41729736
1c,1,None,3612383,1779733587250,-9.61,-1.65,0.07,-0.875,2.9375,1.75,-0.5644531,0.50476074,-0.50250244,-0.41723633
1c,4,None,29615315,1779733587250,6.522136,-2.1536405,-0.7393822,-21.90496,12.181111,6.2437277,-136.8018,-67.35864,239.31212,0.0
1c,2,None,654391,1779733587252,-7.6457195,1.2589598,5.1732826,-5.8833623,-5.23376,-0.70238113,9.512183,58.02426,203.40036,0.0
1c,1,None,3612406,1779733587275,-9.62,-1.59,-0.04,-1.5,4.0,1.4375,-0.5640869,0.50494385,-0.5028076,-0.4171753
1c,3,None,3412416,1779733587292,8.602399,-11.549858,2.9072795,-11.714224,18.249699,61.56922,-105.03985,-56.12202,338.47684,0.0
1c,1,None,3612429,1779733587309,-9.61,-1.56,-0.16,-1.75,3.5625,1.5625,-0.5635376,0.505249,-0.5031128,-0.4171753
1c,4,None,29615375,1779733587309,6.7470613,-1.067299,-1.6893327,-8.25496,1.751112,-3.5562723,-136.88548,-67.42345,239.38689,0.0
1c,1,None,3612448,1779733587309,-9.72,-1.43,-0.58,-1.9375,1.9375,1.3125,-0.5630493,0.50549316,-0.50335693,-0.41723633
1c,1,None,3612467,1779733587335,-9.55,-1.49,-0.65,-0.75,0.4375,0.75,-0.5628052,0.5055542,-0.50341797,-0.4173584
1c,2,None,654451,1779733587344,-8.152998,1.2972449,5.1230335,-5.253362,-5.6537595,0.417619,9.643754,57.99761,203.51341,0.0
1c,3,None,3412476,1779733587352,13.651254,-7.3408833,0.38524443,-21.864223,10.9697,17.609222,-104.96427,-56.150314,338.40482,0.0
1c,1,None,3612486,1779733587368,-9.68,-1.5,-0.29,-0.6875,-1.875,0.25,-0.5628662,0.50549316,-0.50323486,-0.41760254
1c,4,None,29615435,1779733587371,7.280661,-1.9287153,0.45942193,23.31504,4.201112,-6.916272,-136.79323,-67.46225,239.3095,0.0
1c,1,None,3612516,1779733587397,-9.7,-1.48,-0.18,-0.5,-2.4375,0.25,-0.5630493,0.5053711,-0.50305176,-0.41778564
1c,1,None,3612532,1779733587398,-9.6,-1.54,-0.23,-0.25,-1.3125,-0.0625,-0.5632324,0.505188,-0.5028076,-0.41796875
1c,3,None,3412536,1779733587408,7.3270245,-13.227226,1.7324035,-54.484222,-19.340302,45.88922,-104.91856,-56.086967,338.35236,0.0
1c,1,None,3612553,1779733587427,-9.74,-1.44,-0.29,-0.125,-1.6875,-0.6875,-0.5633545,0.505188,-0.50268555,-0.4180298
1c,1,None,3612572,1779733587429,-9.7,-1.47,-0.45,0.0625,-2.375,-1.0625,-0.56359863,0.50512695,-0.5023804,-0.41809082
1c,4,None,29615495,1779733587430,6.376174,-3.5295134,-3.9720855,-28.90496,-12.878889,11.983728,-136.81375,-67.3891,239.31912,0.0
1c,1,None,3612592,1779733587457,-9.61,-1.53,-0.25,0.375,-4.125,-1.125,-0.56378174,0.5050659,-0.50213623,-0.41815186
1c,2,None,654511,1779733587464,-7.7390394,1.2876737,5.245067,-2.5233622,-2.2937598,1.327619,9.723615,57.94587,203.58203,0.0
1c,3,None,3412596,1779733587469,7.40838,-9.446568,1.6773688,8.585776,-9.3303,21.319221,-104.83688,-56.044697,338.28778,0.0
1c,1,None,3612615,1779733587487,-9.75,-1.49,-0.15,0.875,-4.375,-1.125,-0.56451416,0.50476074,-0.50146484,-0.41845703
1c,1,None,3612630,1779733587489,-9.34,-1.73,-0.12,1.6875,-3.75,-1.375,-0.56481934,0.5046387,-0.50128174,-0.418396
1c,4,None,29615555,1779733587489,5.627221,-1.0194424,-1.5290138,3.1550398,-6.5088882,6.6637278,-136.91235,-67.44788,239.41116,0.0
1c,1,None,3612654,1779733587516,-9.44,-1.65,0.07,1.25,-3.8125,-0.3125,-0.5656128,0.50408936,-0.5007324,-0.4185791
1c,2,None,654705,1779733587523,-7.617006,1.3259588,5.005785,-6.583362,-1.2437598,0.27761889,9.916922,57.854702,203.74863,0.0
1c,3,None,3412656,1779733587535,9.583456,-12.442381,0.36370903,12.505776,-5.830301,36.719223,-104.76072,-55.981537,338.22754,0.0
1c,1,None,3612675,1779733587551,-9.82,-1.53,0.13,0.6875,-2.8125,-0.625,-0.565979,0.5038452,-0.50042725,-0.4187622
1c,4,None,29615615,1779733587551,6.632206,-1.5099715,-2.5531416,-17.00496,6.2311115,19.823729,-137.05722,-67.432556,239.53693,0.0
1c,1,None,3612698,1779733587576,-9.5,-1.65,-0.07,0.8125,-2.4375,-0.6875,-0.5663452,0.5036621,-0.5001831,-0.41882324
1c,1,None,3612717,1779733587578,-9.72,-1.57,-0.03,1.25,-1.9375,0.125,-0.5666504,0.50341797,-0.50006104,-0.41882324
1c,3,None,3412716,1779733587593,11.028722,-7.429417,4.7569313,80.755775,3.1296997,52.329224,-104.641975,-55.97274,338.1493,0.0
1c,1,None,3612736,1779733587609,-9.5,-1.64,-0.04,1.5625,-2.0,0.0,-0.56695557,0.5031738,-0.49993896,-0.41888428
1c,4,None,29615674,1779733587610,4.8184466,-1.0122639,-1.8065811,0.70504,39.34111,4.7037277,-137.19795,-67.44024,239.66309,0.0
1c,2,None,654724,1779733587614,-7.6840053,1.4767067,4.9387856,-7.143362,-1.9437598,-0.07238102,10.043846,57.82586,203.85812,0.0
1c,1,None,3612765,1779733587637,-9.63,-1.59,0.17,1.125,-2.5,0.1875,-0.5675659,0.5027466,-0.49957275,-0.41900635
1c,1,None,3612781,1779733587638,-9.69,-1.54,0.27,0.375,-1.375,0.1875,-0.567688,0.5026245,-0.49945068,-0.41906738
1c,3,None,3412776,1779733587652,5.838689,-7.379168,7.496713,185.54578,49.329697,55.269222,-104.469635,-55.953323,338.04813,0.0
1c,1,None,3612805,1779733587668,-9.58,-1.64,0.15,-0.25,-0.1875,-0.0625,-0.5679321,0.5025635,-0.4991455,-0.41918945
1c,4,None,29615735,1779733587668,5.5937214,-2.8619163,-7.2406816,-35.41496,76.16111,-43.59627,-137.2848,-67.41353,239.72922,0.0
1c,2,None,654781,1779733587672,-8.169748,1.3857794,4.998606,-7.003362,0.9962402,0.767619,10.182659,57.822956,203.97786,0.0
1c,1,None,3612825,1779733587695,-9.54,-1.64,0.04,-1.0625,0.1875,0.25,-0.56799316,0.50268555,-0.4989624,-0.4192505
1c,3,None,3412836,1779733587711,8.734004,-11.143079,1.3040884,26.505777,-42.8603,73.95922,-104.39518,-55.88418,337.99863,0.0
1c,1,None,3612846,1779733587725,-9.68,-1.54,0.08,-1.25,1.0625,0.8125,-0.56781006,0.5028076,-0.4989624,-0.41937256
1c,1,None,3612865,1779733587726,-9.78,-1.5,0.08,-1.4375,1.75,0.75,-0.5675049,0.5029907,-0.49902344,-0.41937256
1c,4,None,29615794,1779733587737,9.204491,-6.711968,-1.4476578,-23.09496,-31.778887,9.393728,-137.15036,-67.37821,239.59962,0.0
1c,2,None,654872,1779733587737,-7.8227887,1.2446029,5.087141,-6.373362,-0.1937598,3.2876189,10.285778,57.778847,204.0676,0.0
1c,1,None,3612883,1779733587755,-9.65,-1.58,-0.04,-1.6875,3.125,0.25,-0.5671387,0.50341797,-0.4991455,-0.4192505
1c,3,None,3412896,1779733587767,8.343974,-9.903597,3.4504504,5.9257765,-26.900301,13.619221,-104.321365,-55.85662,337.94366,0.0
1c,1,None,3612907,1779733587785,-9.63,-1.58,-0.36,-1.375,2.6875,0.5,-0.56677246,0.5037842,-0.49926758,-0.41912842
1c,1,None,3612932,1779733587786,-9.62,-1.52,-0.33,-0.75,1.4375,0.75,-0.5665283,0.5039673,-0.49945068,-0.41906738
1c,4,None,29615855,1779733587789,6.5101724,-1.4429724,-0.72741807,-45.074963,7.3511114,69.73373,-137.05676,-67.410416,239.49113,0.0
1c,2,None,654931,1779733587792,-8.076427,1.4479928,4.9938207,-3.7833622,0.9962402,6.227619,10.428338,57.768955,204.19049,0.0
1c,1,None,3612946,1779733587815,-9.63,-1.5,-0.32,-0.5,-0.0625,0.5625,-0.5665283,0.5039673,-0.49938965,-0.41912842
1c,3,None,3412956,1779733587827,8.949358,-11.870497,2.2660031,-5.7642236,-12.900301,3.1892204,-104.25052,-55.819584,337.88568,0.0
1c,1,None,3612972,1779733587845,-9.45,-1.55,-0.28,0.25,-0.8125,0.1875,-0.5664673,0.50408936,-0.49938965,-0.41900635
1c,1,None,3612990,1779733587846,-9.72,-1.45,-0.25,0.5625,-2.125,-0.0625,-0.5665283,0.50408936,-0.4993286,-0.41906738
1c,4,None,29615915,1779733587849,7.0964136,0.574177,-0.95712906,-43.74496,-10.288889,45.023727,-137.11859,-67.45668,239.53064,0.0
1c,2,None,654991,1779733587856,-7.6337557,1.5102061,4.831109,-3.363362,1.4862401,4.267619,10.565243,57.747906,204.3081,0.0
1c,1,None,3613011,1779733587875,-9.57,-1.51,-0.31,0.9375,-3.3125,-0.5,-0.56677246,0.5038452,-0.4991455,-0.4192505
1c,1,None,3613026,1779733587876,-9.58,-1.53,-0.18,1.3125,-5.0,-0.6875,-0.56726074,0.503479,-0.49884033,-0.4194336
1c,3,None,3413016,1779733587892,10.21516,-11.033009,5.7427745,-37.964222,-44.750298,37.20922,-104.19838,-55.79221,337.8383,0.0
1c,4,None,29615975,1779733587909,6.268497,-1.057728,-2.376073,-33.73496,-24.07889,-3.5562723,-137.32153,-67.46164,239.70975,0.0
1c,2,None,655051,1779733587912,-8.193676,1.5197775,4.883751,-0.07336187,-1.5937599,-0.352381,10.700507,57.75658,204.42241,0.0
1c,1,None,3613052,1779733587935,-9.62,-1.58,-0.03,1.5625,-5.625,-0.625,-0.5678711,0.50305176,-0.49835205,-0.41967773
1c,1,None,3613072,1779733587936,-9.57,-1.65,0.1,1.8125,-5.3125,-0.5625,-0.5685425,0.5025635,-0.49786377,-0.41992188
1c,3,None,3413076,1779733587951,12.09592,-11.956637,4.630112,-27.394224,-43.070297,66.049225,-104.13549,-55.754173,337.7834,0.0
1c,1,None,3613091,1779733587970,-9.61,-1.65,0.18,2.0625,-4.5,-0.3125,-0.56915283,0.50201416,-0.49749756,-0.42010498
1c,4,None,29616035,1779733587970,7.010272,-1.9526434,-0.72502524,-21.764961,-4.548888,6.873728,-137.23381,-67.495674,239.62141,0.0
1c,1,None,3613115,1779733587995,-9.61,-1.64,0.27,1.3125,-4.0,-0.0625,-0.5698242,0.5015869,-0.4970703,-0.4202881
1c,1,None,3613132,1779733587996,-9.62,-1.6,0.26,0.875,-2.4375,0.125,-0.5703125,0.5012207,-0.49676514,-0.4204712
1c,2,None,655111,1779733588002,-7.762968,1.4527785,5.0177493,-0.6333623,-4.04376,-0.842381,10.821959,57.721302,204.52501,0.0
1c,3,None,3413136,1779733588007,9.820346,-9.939488,4.476971,-30.894224,-32.0103,59.95922,-104.07026,-55.72031,337.7238,0.0
1c,1,None,3613154,1779733588027,-9.68,-1.61,0.21,0.5,-1.0625,0.25,-0.57055664,0.5010376,-0.496521,-0.42059326
1c,1,None,3613173,1779733588027,-9.47,-1.68,0.12,0.4375,-0.25,0.0625,-0.5706787,0.5010376,-0.49639893,-0.42053223
1c,4,None,29616094,1779733588028,7.476873,-1.9215368,-1.3782659,-26.24496,-0.90888786,4.7037277,-137.16403,-67.538826,239.54811,0.0
1c,1,None,3613190,1779733588057,-9.6,-1.59,0.03,-0.125,-0.25,0.375,-0.5706787,0.50109863,-0.4963379,-0.42053223
1c,2,None,655171,1779733588064,-8.102749,1.4001365,4.9028935,-2.103362,-2.6437597,0.557619,10.958697,57.725685,204.64127,0.0
1c,3,None,3413196,1779733588068,9.303496,-9.65235,2.591427,-17.804224,-22.070301,66.95922,-103.99337,-55.67608,337.65613,0.0
1c,1,None,3613213,1779733588087,-9.65,-1.6,-0.03,0.1875,0.5625,0.5625,-0.57073975,0.50109863,-0.4963379,-0.42053223
1c,4,None,29616155,1779733588089,7.5414786,-1.057728,-0.75613195,-23.93496,6.791112,6.6637278,-137.14217,-67.59402,239.51889,0.0
1c,1,None,3613238,1779733588116,-9.65,-1.56,-0.01,0.375,0.5,0.3125,-0.57073975,0.50109863,-0.4963379,-0.4204712
1c,1,None,3613258,1779733588118,-9.68,-1.54,-0.06,0.1875,-0.1875,0.1875,-0.57073975,0.50115967,-0.4963379,-0.4204712
1c,2,None,655261,1779733588123,-7.844324,1.3929579,4.9651065,-7.0733624,-0.5437598,3.427619,11.089815,57.69913,204.75479,0.0
1c,3,None,3413256,1779733588128,10.956937,-11.84896,3.4313078,12.225777,-2.2603006,63.73922,-103.89758,-55.63393,337.57797,0.0
1c,1,None,3613276,1779733588151,-9.68,-1.53,-0.01,0.1875,-0.25,-0.125,-0.57073975,0.50115967,-0.4963379,-0.4204712
1c,4,None,29616214,1779733588151,6.636992,-0.76341075,-0.3924229,7.7750397,28.211111,-2.716272,-137.10155,-67.65589,239.48155,0.0
1c,1,None,3613295,1779733588177,-9.61,-1.66,0.29,0.25,0.625,-0.375,-0.57073975,0.50115967,-0.4963379,-0.42041016
1c,1,None,3613315,1779733588178,-9.55,-1.68,0.35,-0.0625,2.1875,0.1875,-0.5706177,0.50128174,-0.49645996,-0.4202881
1c,2,None,655321,1779733588184,-7.810825,1.3163877,4.9722853,-6.933362,-0.26375985,4.477619,11.214229,57.666004,204.8628,0.0
1c,3,None,3413316,1779733588196,8.652649,-7.515559,6.558727,90.06577,60.5997,12.91922,-103.7554,-55.63545,337.47437,0.0
1c,1,None,3613340,1779733588211,-9.68,-1.53,0.07,-0.75,4.0625,0.625,-0.5701904,0.5015259,-0.4968872,-0.42004395
1c,1,None,3613355,1779733588211,-9.74,-1.54,-0.19,-0.8125,5.1875,0.4375,-0.56970215,0.5019531,-0.49731445,-0.41973877
1c,4,None,29616275,1779733588211,6.424031,0.17218262,-0.62452674,77.63504,55.51111,-36.59627,-137.10588,-67.73853,239.50919,0.0
1c,1,None,3613379,1779733588235,-9.59,-1.6,-0.37,0.3125,3.5,-0.0625,-0.56933594,0.5022583,-0.4977417,-0.41937256
1c,2,None,655381,1779733588243,-7.9663577,1.4551712,4.974678,-8.473362,1.9762402,6.577619,11.353062,57.64987,204.98387,0.0
1c,3,None,3413376,1779733588252,7.5974135,-15.617656,1.8664017,-21.304224,48.4897,55.68922,-103.67017,-55.570717,337.38602,0.0
1c,1,None,3613400,1779733588268,-9.45,-1.67,-0.2,1.1875,-0.1875,-0.125,-0.56933594,0.50219727,-0.49786377,-0.4192505
1c,4,None,29616334,1779733588268,5.730112,-1.4477578,-0.6652047,92.89504,71.751114,-38.976273,-136.97336,-67.80755,239.41385,0.0
1c,1,None,3613420,1779733588295,-9.67,-1.54,0.18,1.0,-1.875,0.5625,-0.5695801,0.50201416,-0.49780273,-0.41931152
1c,2,None,655441,1779733588303,-7.777325,1.4408144,5.0344987,-8.613362,-0.123759866,4.477619,11.470195,57.61239,205.08615,0.0
1c,3,None,3413436,1779733588308,8.81536,-10.458731,2.7972097,-17.874224,1.5196991,78.36922,-103.583824,-55.518566,337.3057,0.0
1c,1,None,3613443,1779733588327,-9.56,-1.62,0.12,0.625,-0.625,0.4375,-0.56970215,0.50183105,-0.4977417,-0.41931152
1c,1,None,3613463,1779733588327,-9.79,-1.51,0.0,0.125,-0.375,0.3125,-0.56970215,0.50183105,-0.4977417,-0.41931152
1c,4,None,29616395,1779733588328,4.335097,-1.4357939,-0.34695926,77.005035,73.78111,-29.596272,-136.80469,-67.86029,239.27875,0.0
1c,1,None,3613482,1779733588355,-9.52,-1.6,-0.07,0.1875,-0.125,-0.0625,-0.56970215,0.5018921,-0.4977417,-0.4192505
1c,1,None,3613498,1779733588356,-9.55,-1.66,0.02,0.375,-0.6875,-0.0625,-0.5697632,0.5018921,-0.49768066,-0.41931152
1c,2,None,655501,1779733588363,-7.8347526,1.5843837,4.74736,-7.913362,-3.2737598,0.34761906,11.60606,57.61137,205.20316,0.0
1c,3,None,3413496,1779733588369,13.773289,-10.41566,3.8524444,14.045776,-29.840302,65.69922,-103.499626,-55.49536,337.243,0.0
1c,1,None,3613522,1779733588385,-9.61,-1.63,0.04,0.375,-0.4375,0.375,-0.5698242,0.5018921,-0.49761963,-0.41931152
1c,4,None,29616455,1779733588389,4.1340995,-0.51216394,-1.3495519,102.76504,138.7411,-27.426271,-136.87592,-67.93981,239.3681,0.0
1c,1,None,3613545,1779733588415,-9.72,-1.54,0.07,0.1875,-0.25,0.4375,-0.5698242,0.5018921,-0.49761963,-0.41931152
1c,2,None,655561,1779733588422,-8.050107,1.3809937,5.029713,-5.813362,-4.3937597,-3.5023808,11.738767,57.59214,205.31612,0.0
1c,3,None,3413556,1779733588427,8.839289,-12.978374,3.3786654,23.915777,-42.2303,60.65922,-103.427986,-55.43853,337.1962,0.0
1c,1,None,3613566,1779733588446,-9.62,-1.56,0.0,0.25,0.25,0.3125,-0.5698242,0.5018921,-0.49761963,-0.4192505
1c,1,None,3613583,1779733588446,-9.54,-1.64,0.04,0.3125,1.4375,0.3125,-0.56970215,0.50201416,-0.4977417,-0.41906738
1c,4,None,29616515,1779733588448,5.675077,0.84695935,2.199004,112.42504,150.3611,-44.366272,-136.75012,-68.03346,239.27863,0.0
1c,1,None,3613604,1779733588475,-9.66,-1.6,0.11,-0.3125,1.1875,0.1875,-0.5696411,0.50213623,-0.49786377,-0.4189453
1c,2,None,655622,1779733588482,-7.928073,1.4455999,4.989035,-9.943362,-3.0637598,-2.1023812,11.868374,57.568966,205.42795,0.0
1c,3,None,3413616,1779733588488,6.767104,-12.291633,3.7495532,-1.2842237,-83.1803,90.33922,-103.38546,-55.367203,337.1727,0.0
1c,1,None,3613626,1779733588505,-9.6,-1.62,0.16,-0.9375,1.0,0.1875,-0.5695801,0.5022583,-0.49786377,-0.4189453
1c,1,None,3613643,1779733588506,-9.76,-1.54,0.04,-0.875,2.75,-0.125,-0.56933594,0.50250244,-0.49798584,-0.41882324
1c,4,None,29616575,1779733588509,5.215655,-3.0365918,-0.5886344,68.95504,124.32111,-86.29627,-136.54655,-68.0732,239.10927,0.0
1c,1,None,3613664,1779733588535,-9.52,-1.59,-0.18,-0.25,4.125,-0.0625,-0.5689697,0.5028076,-0.49835205,-0.41845703
1c,1,None,3613684,1779733588536,-9.54,-1.63,-0.17,-0.0625,2.25,0.25,-0.5687256,0.5029907,-0.49865723,-0.4182129
1c,2,None,655681,1779733588543,-7.72229,1.2517815,5.015356,-10.853362,-2.8537598,-1.6823812,11.947216,57.517216,205.49727,0.0
1c,3,None,3413676,1779733588547,8.635899,-8.810077,1.7491533,-24.944223,-91.3703,110.14922,-103.34101,-55.298935,337.14154,0.0
1c,1,None,3613708,1779733588565,-9.75,-1.43,-0.04,-0.25,0.25,0.4375,-0.5687256,0.5029907,-0.49865723,-0.4182129
1c,4,None,29616634,1779733588568,6.6178493,0.9354934,-1.5720845,114.24504,89.95111,-88.956276,-136.63702,-68.17169,239.23056,0.0
1c,1,None,3613731,1779733588595,-9.53,-1.61,-0.05,-0.0625,0.5,-0.25,-0.5687256,0.5029907,-0.49865723,-0.4182129
1c,2,None,655741,1779733588603,-7.810825,1.177604,5.192425,-13.233362,-1.1037599,-1.822381,11.969835,57.458515,205.51987,0.0
1c,3,None,3413736,1779733588613,8.767504,-11.829819,5.084748,-16.684223,-101.5903,119.31923,-103.3031,-55.229454,337.11978,0.0
1c,4,None,29616695,1779733588630,6.27089,-3.6276195,-2.091327,77.63504,73.99111,-96.376274,-136.49445,-68.15647,239.12585,0.0
1c,1,None,3613753,1779733588657,-9.52,-1.64,0.04,0.125,0.875,-0.0625,-0.56866455,0.5031128,-0.49871826,-0.4180298
1c,1,None,3613769,1779733588658,-9.69,-1.6,0.09,-0.25,0.9375,0.3125,-0.5686035,0.5031738,-0.4987793,-0.4180298
1c,2,None,655801,1779733588665,-7.837146,1.1752112,5.111069,-15.193361,-1.3137599,-0.842381,12.010539,57.400745,205.55843,0.0
1c,3,None,3413796,1779733588669,7.8749804,-9.224035,2.9359932,-37.684223,-81.1503,135.69922,-103.25804,-55.154858,337.0815,0.0
1c,1,None,3613787,1779733588687,-9.61,-1.55,-0.14,-0.3125,2.4375,0.25,-0.56848145,0.5032959,-0.49890137,-0.41784668
1c,1,None,3613814,1779733588689,-9.6,-1.61,-0.28,-0.3125,2.25,0.0,-0.56829834,0.50354004,-0.4991455,-0.41760254
1c,1,None,3613828,1779733588690,-9.63,-1.52,-0.07,0.1875,1.25,0.3125,-0.56817627,0.5036011,-0.49926758,-0.41748047
1c,4,None,29616754,1779733588690,7.3404818,-2.3259237,-0.20578274,-21.484959,67.69111,-25.256271,-136.36633,-68.20911,238.9963,0.0
1c,1,None,3613853,1779733588715,-9.82,-1.49,0.06,-0.1875,0.25,0.0,-0.56817627,0.5036011,-0.49926758,-0.41748047
1c,2,None,655861,1779733588723,-7.935251,1.2158891,5.1014977,-11.623362,-0.6837598,-0.562381,12.090795,57.349815,205.62932,0.0
1c,3,None,3413856,1779733588728,5.9655085,-12.066708,-0.4737789,-20.534224,-71.9103,94.74922,-103.24819,-55.052322,337.07718,0.0
1c,1,None,3613877,1779733588745,-9.81,-1.51,0.03,-0.3125,0.75,-0.4375,-0.5680542,0.50372314,-0.49938965,-0.41729736
1c,4,None,29616815,1779733588748,6.294818,-2.4096727,-1.4117653,23.175041,54.95111,-38.066273,-136.17896,-68.219246,238.82848,0.0
1c,2,None,655921,1779733588783,-8.0525,0.7133963,5.3336015,-12.813362,-3.8337598,1.677619,11.971719,57.322773,205.53299,0.0
1c,3,None,3413916,1779733588787,5.838689,-9.561422,3.4863427,-35.654224,-59.170303,66.32922,-103.20614,-54.996834,337.04095,0.0
1c,1,None,3613895,1779733588806,-9.78,-1.57,-0.2,0.375,3.875,-1.0625,-0.56781006,0.50408936,-0.49969482,-0.41687012
1c,1,None,3613916,1779733588806,-9.83,-1.44,-0.2,0.8125,4.125,-0.875,-0.5675659,0.50445557,-0.50006104,-0.41644287
1c,4,None,29616875,1779733588808,6.5197434,-2.9145584,-1.8400806,4.7650404,22.891111,-21.966272,-136.02365,-68.18289,238.68584,0.0
1c,1,None,3613933,1779733588808,-9.83,-1.44,-0.19,1.125,4.4375,-1.1875,-0.5673828,0.50476074,-0.5004883,-0.41577148
1c,1,None,3613959,1779733588835,-9.07,-1.86,-0.42,1.625,3.9375,-2.125,-0.5673218,0.5050049,-0.50079346,-0.41516113
1c,1,None,3613974,1779733588836,-9.07,-1.85,-0.03,1.375,0.5,-0.75,-0.56744385,0.5050049,-0.5008545,-0.41485596
1c,2,None,655981,1779733588843,-8.074035,0.82107335,5.3312087,-7.353362,-1.4537598,3.707619,11.866827,57.2896,205.4475,0.0
1c,3,None,3413976,1779733588855,6.5182505,-10.209878,1.9501505,82.29578,-53.500298,46.379223,-103.12588,-54.93719,337.0071,0.0
1c,1,None,3613997,1779733588869,-9.85,-1.6,0.39,0.1875,0.0,0.25,-0.5675049,0.50494385,-0.5009155,-0.41479492
1c,4,None,29616935,1779733588869,6.110571,-2.1943185,-5.051249,-34.78496,-6.998888,9.393728,-136.1353,-68.12962,238.77794,0.0
1c,1,None,3614014,1779733588870,-9.72,-1.65,0.27,-0.3125,3.0625,0.375,-0.5673218,0.50512695,-0.50115967,-0.41461182
1c,1,None,3614038,1779733588895,-9.47,-1.65,-0.15,-0.125,4.9375,-0.0625,-0.5668335,0.50549316,-0.501709,-0.41412354
1c,2,None,656041,1779733588902,-7.7821107,1.1201762,4.7808595,-9.943362,0.4362402,5.877619,11.965695,57.324715,205.53473,0.0
1c,3,None,3414036,1779733588911,8.212369,-9.7337055,0.46181476,-3.7342234,4.2496996,45.81922,-103.04771,-54.87574,336.93915,0.0
1c,1,None,3614054,1779733588928,-9.53,-1.68,-0.03,-0.5625,4.8125,0.4375,-0.5663452,0.5058594,-0.50219727,-0.41363525
1c,1,None,3614075,1779733588929,-9.57,-1.69,0.07,-1.4375,4.4375,0.375,-0.565979,0.5062866,-0.5024414,-0.4133911
1c,4,None,29616995,1779733588929,6.424031,-2.0986054,-2.498107,-32.82496,-18.408888,-2.3662722,-136.21109,-68.06982,238.83952,0.0
1c,1,None,3614095,1779733588955,-9.73,-1.6,0.07,-1.5,5.625,0.8125,-0.56555176,0.50671387,-0.5027466,-0.41314697
1c,2,None,656101,1779733588962,-8.088392,1.0818911,4.962714,-7.633362,0.08624017,7.137619,11.999764,57.37917,205.56699,0.0
1c,3,None,3414096,1779733588972,5.044272,-11.851354,3.6993039,18.945776,10.269699,32.79922,-102.964386,-54.828785,336.87292,0.0
1c,1,None,3614115,1779733588987,-9.72,-1.56,-0.1,-1.8125,8.3125,0.5625,-0.56481934,0.5073242,-0.5032959,-0.41271973
1c,4,None,29617055,1779733588988,5.5937214,-6.762217,-4.790431,-141.32497,-115.918884,50.06373,-136.2428,-67.95591,238.8289,0.0
1c,1,None,3614135,1779733589015,-9.68,-1.54,-0.75,-2.125,9.3125,0.25,-0.5638428,0.5081177,-0.5040283,-0.41210938
1c,1,None,3614155,1779733589016,-9.54,-1.44,-1.01,-1.125,8.1875,0.0,-0.5629883,0.50891113,-0.5046997,-0.41149902
1c,2,None,656161,1779733589022,-7.9328585,1.2087106,4.941179,-10.713362,-1.7337598,7.277619,12.137845,57.37503,205.6877,0.0
1c,3,None,3414156,1779733589028,9.277175,-14.457138,0.37567315,142.35577,-46.2203,71.36922,-102.87143,-54.744595,336.84344,0.0
1c,1,None,3614176,1779733589046,-9.68,-1.54,-0.79,0.3125,6.375,-0.625,-0.56243896,0.5093994,-0.5053711,-0.41088867
1c,4,None,29617115,1779733589048,8.75464,-7.554241,1.3639089,-271.59497,-197.8189,92.833725,-136.25635,-67.87826,238.76268,0.0
1c,1,None,3614202,1779733589076,-9.65,-1.62,-0.57,2.4375,4.625,-1.3125,-0.56225586,0.50964355,-0.5058594,-0.41015625
1c,1,None,3614217,1779733589076,-9.6,-1.68,-0.23,3.25,1.9375,-1.5625,-0.5623779,0.5097046,-0.5062256,-0.4095459
1c,2,None,656221,1779733589083,-7.894573,1.1919609,5.3312087,-13.093363,-4.04376,2.097619,12.147906,57.314835,205.70024,0.0
1c,3,None,3414216,1779733589087,6.2789683,-8.551651,0.040677983,179.17577,-138.4803,128.90923,-102.8017,-54.633644,336.85907,0.0
1c,1,None,3614236,1779733589106,-9.56,-1.59,-0.37,3.0,1.75,-1.8125,-0.5626221,0.50964355,-0.5064087,-0.40893555
1c,4,None,29617174,1779733589110,6.9145594,1.6150551,5.9629145,-156.37495,-188.6489,177.81372,-136.27484,-67.82451,238.72948,0.0
1c,1,None,3614257,1779733589137,-9.64,-1.56,-0.73,1.9375,-0.875,-2.1875,-0.56292725,0.50964355,-0.5064087,-0.40856934
1c,1,None,3614276,1779733589138,-9.32,-1.75,-0.66,2.8125,-3.375,-2.5,-0.56359863,0.5093994,-0.5061035,-0.40838623
1c,3,None,3414276,1779733589147,4.003394,-6.237792,3.1202407,391.5558,-183.9803,146.68922,-102.661125,-54.548714,336.8857,0.0
1c,1,None,3614297,1779733589165,-9.15,-1.8,-0.32,4.25,-4.25,-1.9375,-0.5644531,0.50891113,-0.50579834,-0.40820312
1c,4,None,29617235,1779733589168,7.2902327,0.6603192,9.195618,-46.75496,-28.698889,132.59372,-136.17464,-67.81601,238.61154,0.0
1c,2,None,656281,1779733589172,-8.062071,0.7301461,5.615955,-17.013363,-5.6537595,-2.3123813,12.052915,57.27311,205.62466,0.0
1c,1,None,3614322,1779733589196,-9.32,-1.8,0.0,5.0,-3.625,-0.875,-0.5652466,0.5083008,-0.50567627,-0.40802002
1c,1,None,3614337,1779733589196,-9.75,-1.76,0.64,3.6875,-4.0625,0.3125,-0.565979,0.50756836,-0.5055542,-0.40802002
1c,3,None,3414336,1779733589213,5.7262263,-0.0906307,7.379465,318.12576,-175.5803,161.17921,-102.55972,-54.501312,336.92117,0.0
1c,1,None,3614359,1779733589231,-9.78,-1.76,0.66,1.75,-1.0,0.625,-0.5662842,0.50720215,-0.5055542,-0.40808105
1c,4,None,29617294,1779733589231,4.2226334,1.9524435,2.440679,-10.70496,61.95111,86.25372,-136.08095,-67.85412,238.50746,0.0
1c,2,None,656341,1779733589233,-7.325082,1.2637454,4.759324,-5.603362,-0.33375978,-9.102381,12.15328,57.23112,205.70903,0.0
1c,1,None,3614377,1779733589258,-9.41,-1.8,0.16,-0.3125,4.1875,0.6875,-0.56604004,0.5072632,-0.5059204,-0.4078369
1c,1,None,3614402,1779733589258,-9.57,-1.71,-0.38,-1.9375,5.0625,1.0625,-0.56536865,0.50775146,-0.5064087,-0.40759277
1c,3,None,3414396,1779733589267,14.089141,-2.6365938,15.017355,86.42577,-87.7303,104.47922,-102.49927,-54.479393,336.9093,0.0
1c,1,None,3614419,1779733589289,-9.62,-1.5,-1.46,-2.3125,2.375,0.9375,-0.56481934,0.50805664,-0.50665283,-0.4076538
1c,4,None,29617355,1779733589289,5.945466,-2.4455647,0.79681,41.86504,58.24111,41.94373,-135.89093,-67.88096,238.3357,0.0
1c,2,None,656431,1779733589293,-7.427973,0.83782315,5.1206403,-6.373362,-3.1337595,-8.75238,12.079378,57.183636,205.64703,0.0
1c,1,None,3614437,1779733589316,-9.54,-1.44,-1.66,-0.1875,-1.5625,0.3125,-0.5647583,0.5081177,-0.50653076,-0.40777588
1c,1,None,3614463,1779733589317,-9.63,-1.51,-0.93,2.5,-7.0625,-0.9375,-0.56604004,0.5071411,-0.50567627,-0.40820312
1c,3,None,3414456,1779733589329,13.112869,0.22522199,15.955341,-115.244225,11.8097,30.069221,-102.47446,-54.49234,336.85266,0.0
1c,1,None,3614477,1779733589346,-9.68,-1.68,-0.16,3.9375,-11.6875,-1.625,-0.56677246,0.50665283,-0.505188,-0.4085083
1c,4,None,29617415,1779733589348,9.326525,-1.2730817,0.61016977,-22.534962,49.56111,43.06373,-135.78929,-67.92907,238.2256,0.0
1c,2,None,656491,1779733589352,-8.856488,0.43822175,5.5369916,-6.8633623,-2.92376,-8.33238,11.936412,57.200504,205.52722,0.0
1c,1,None,3614502,1779733589375,-9.4,-1.9,0.68,3.375,-12.5,-1.8125,-0.56829834,0.5055542,-0.50408936,-0.40905762
1c,3,None,3414516,1779733589387,10.286946,-2.6318083,10.80838,-66.80423,19.2297,23.419222,-102.423225,-54.50476,336.78717,0.0
1c,1,None,3614522,1779733589406,-9.37,-1.93,0.9,1.875,-8.625,-0.9375,-0.569397,0.50476074,-0.50323486,-0.40960693
1c,1,None,3614542,1779733589406,-9.8,-1.79,0.82,-0.8125,-3.4375,0.1875,-0.5698242,0.50445557,-0.5027466,-0.40997314
1c,4,None,29617475,1779733589410,12.054342,-2.3139596,1.8065811,-27.15496,29.681112,7.433728,-135.70363,-67.97418,238.13402,0.0
1c,2,None,656551,1779733589413,-7.8754306,0.52675617,5.103891,-6.8633623,1.0662402,-5.8123813,11.795881,57.19811,205.41008,0.0
1c,1,None,3614563,1779733589438,-9.71,-1.71,0.16,-2.5,1.9375,0.6875,-0.56921387,0.50494385,-0.50286865,-0.41015625
1c,3,None,3414576,1779733589447,8.274582,-5.256735,7.9106717,-65.964226,1.3796992,53.449223,-102.3685,-54.496033,336.72125,0.0
1c,1,None,3614586,1779733589465,-9.61,-1.65,-0.64,-2.375,4.3125,0.625,-0.5686035,0.5054321,-0.5031128,-0.40997314
1c,1,None,3614603,1779733589466,-9.41,-1.68,-0.93,-0.75,0.5625,0.6875,-0.5683594,0.5055542,-0.50323486,-0.41003418
1c,4,None,29617535,1779733589469,11.903594,-4.6158547,6.7788663,-54.87496,75.46111,5.683728,-135.58232,-68.01706,237.99635,0.0
1c,1,None,3614624,1779733589495,-9.49,-1.63,-0.76,0.6875,-3.4375,0.375,-0.5686035,0.5053711,-0.50305176,-0.4102173
1c,2,None,656611,1779733589502,-8.4544935,0.43343607,5.249853,-4.973362,-2.36376,-3.362381,11.657836,57.218307,205.29478,0.0
1c,3,None,3414636,1779733589507,8.499508,-5.8669047,7.530213,-97.744225,-29.5603,53.519222,-102.33803,-54.48338,336.67218,0.0
1c,1,None,3614645,1779733589532,-9.7,-1.74,0.2,1.75,-4.5,0.0,-0.56915283,0.5048828,-0.5027466,-0.41046143
1c,4,None,29617595,1779733589532,13.114364,-4.4698925,5.6494546,-147.97496,71.96111,-10.976272,-135.50522,-68.06531,237.87135,0.0
1c,1,None,3614665,1779733589532,-9.58,-1.8,0.55,1.75,-3.6875,0.0,-0.5696411,0.50439453,-0.50250244,-0.4105835
1c,1,None,3614691,1779733589557,-9.36,-1.85,0.47,-0.8125,1.0,0.9375,-0.56970215,0.5043335,-0.5024414,-0.41070557
1c,1,None,3614705,1779733589557,-9.0,-1.95,0.07,-1.75,2.9375,1.75,-0.56921387,0.5045166,-0.5027466,-0.4107666
1c,2,None,656671,1779733589563,-8.212818,0.46454278,5.1349974,-7.353362,1.4862401,-0.352381,11.519363,57.236378,205.1805,0.0
1c,3,None,3414696,1779733589568,9.741383,-5.26152,9.743574,-17.524223,-46.710304,37.97922,-102.29313,-54.47892,336.63828,0.0
1c,1,None,3614730,1779733589589,-9.22,-1.83,-0.19,-2.875,-0.125,3.125,-0.5687256,0.50457764,-0.50286865,-0.41119385
1c,4,None,29617655,1779733589589,12.609477,-7.3915296,4.443472,-168.34496,40.04111,-30.366272,-135.44023,-68.09762,237.75569,0.0
1c,1,None,3614747,1779733589617,-9.76,-1.61,-0.27,-2.9375,-1.4375,3.9375,-0.56829834,0.50445557,-0.50286865,-0.41192627
1c,2,None,656761,1779733589623,-7.8826094,0.62964755,4.9674997,-1.7533622,-0.6837598,0.767619,11.381712,57.249306,205.06537,0.0
1c,3,None,3414756,1779733589628,9.325031,-8.020445,9.348758,-222.27423,-70.2303,76.96922,-102.32245,-54.450066,336.60953,0.0
1c,1,None,3614773,1779733589648,-9.83,-1.49,-0.49,-1.9375,-1.625,3.75,-0.5678711,0.5041504,-0.5029297,-0.41290283
1c,1,None,3614787,1779733589649,-9.8,-1.41,-0.62,-0.4375,-1.375,3.0,-0.56781006,0.5039673,-0.5029907,-0.41308594
1c,4,None,29617714,1779733589650,7.3285174,-4.237789,9.286545,-126.76496,29.681112,-19.096272,-135.39319,-68.130005,237.67003,0.0
1c,1,None,3614812,1779733589676,-9.91,-1.34,-0.64,0.625,-2.5,1.375,-0.5678711,0.5036011,-0.5029297,-0.41345215
1c,2,None,656821,1779733589684,-8.009429,0.6463973,5.0751767,-0.84336233,-0.5437598,1.607619,11.244129,57.257286,204.95018,0.0
1c,3,None,3414816,1779733589689,11.911673,0.17497268,11.296515,-170.05423,-39.640297,11.589222,-102.34412,-54.469593,336.5862,0.0
1c,1,None,3614827,1779733589707,-9.83,-1.45,-0.5,1.3125,-5.0625,-0.1875,-0.56811523,0.5032959,-0.5028076,-0.41363525
1c,1,None,3614848,1779733589709,-9.48,-1.65,-0.26,1.875,-5.75,-0.5,-0.5686035,0.50286865,-0.5025635,-0.41381836
1c,4,None,29617775,1779733589710,7.993722,-0.7179472,15.376279,-6.92496,49.84111,-128.78627,-135.38416,-68.19934,237.66678,0.0
1c,1,None,3614868,1779733589737,-9.57,-1.66,0.0,2.0625,-5.25,0.125,-0.56921387,0.50231934,-0.50213623,-0.41412354
1c,2,None,656881,1779733589744,-7.810825,0.5387203,5.058427,3.3566375,2.8162403,4.197619,11.113333,57.252052,204.84006,0.0
1c,3,None,3414876,1779733589748,14.744776,-7.4772744,8.999406,-226.26422,41.4197,-58.550777,-102.33727,-54.50957,336.51065,0.0
1c,1,None,3614891,1779733589767,-9.72,-1.66,0.25,1.5,-4.8125,-0.1875,-0.5697632,0.50183105,-0.50183105,-0.4144287
1c,1,None,3614908,1779733589769,-9.56,-1.75,0.16,0.875,-4.4375,0.3125,-0.57025146,0.5014038,-0.5014038,-0.4147339
1c,4,None,29617834,1779733589770,7.357231,-3.304588,7.432107,-69.85496,202.3011,-87.556274,-135.25334,-68.29391,237.51228,0.0
1c,1,None,3614927,1779733589796,-9.64,-1.66,0.21,0.5625,-2.8125,0.875,-0.5704956,0.5010376,-0.5012207,-0.41503906
1c,2,None,656941,1779733589804,-8.100356,0.73253894,4.8693943,3.1466374,1.4162402,4.267619,11.032371,57.30298,204.77187,0.0
1c,3,None,3414936,1779733589814,16.771496,-4.974382,6.2907305,-95.644226,146.5597,-128.41078,-102.25195,-54.598476,336.3905,0.0
1c,1,None,3614953,1779733589830,-9.58,-1.65,0.25,-0.125,-1.125,1.375,-0.5708618,0.5007324,-0.5009155,-0.41540527
1c,1,None,3614972,1779733589830,-9.7,-1.54,0.07,-0.4375,-0.25,1.25,-0.5708618,0.5006714,-0.5009155,-0.4154663
1c,4,None,29617895,1779733589830,6.9408803,-0.3207383,-6.5826554,58.175037,64.12111,-69.14628,-135.39845,-68.29976,237.66649,0.0
1c,1,None,3614987,1779733589856,-9.71,-1.61,-0.05,-1.0,0.25,0.75,-0.57073975,0.5006714,-0.5008545,-0.41558838
1c,2,None,657001,1779733589864,-7.7390394,0.3209734,5.063213,4.756638,0.9262402,9.097619,10.904413,57.296696,204.6645,0.0
1c,3,None,3414996,1779733589873,13.581863,-27.775589,2.225325,-98.02423,110.579704,-115.67078,-102.19024,-54.59141,336.29538,0.0
1c,1,None,3615013,1779733589890,-9.43,-1.7,-0.15,-0.5,0.75,0.625,-0.5706177,0.5007324,-0.5009155,-0.41558838
1c,1,None,3615027,1779733589890,-9.77,-1.58,0.22,-0.8125,0.875,1.0625,-0.57055664,0.50079346,-0.50097656,-0.4156494
1c,4,None,29617955,1779733589890,7.8812594,-0.7993027,-1.0576277,222.39503,-182.76889,-82.306274,-135.502,-68.33542,237.85898,0.0
1c,1,None,3615052,1779733589915,-9.73,-1.55,0.15,-1.125,2.75,0.8125,-0.57025146,0.5009155,-0.50109863,-0.4156494
1c,2,None,657061,1779733589922,-8.131462,0.69425374,4.9507504,-1.473362,2.9562402,14.067619,10.805728,57.339863,204.5846,0.0
1c,3,None,3415056,1779733589931,11.612571,-13.339688,1.4117653,-267.98422,200.31969,-48.050777,-102.11593,-54.583797,336.12097,0.0
1c,1,None,3615073,1779733589947,-9.5,-1.7,-0.01,-0.875,3.625,0.375,-0.5699463,0.50128174,-0.50128174,-0.41540527
1c,1,None,3615090,1779733589947,-9.52,-1.7,-0.07,-0.9375,3.3125,0.8125,-0.5695801,0.5015869,-0.5015869,-0.41522217
1c,4,None,29618015,1779733589948,0.9109673,-3.225625,8.62134,345.38504,-224.1389,-39.606274,-135.4694,-68.30236,237.9647,0.0
1c,1,None,3615114,1779733589975,-9.51,-1.66,0.0,-1.8125,1.75,1.375,-0.5690918,0.5019531,-0.50183105,-0.41522217
1c,2,None,657122,1779733589982,-7.772539,0.9478929,4.989035,-7.913362,4.28624,14.977619,10.805764,57.282417,204.58987,0.0
1c,3,None,3415116,1779733589990,9.939986,-12.155242,-0.42831525,-270.08423,171.89969,36.929222,-102.068565,-54.523438,335.96994,0.0
1c,1,None,3615130,1779733590005,-9.71,-1.55,-0.05,-2.0625,1.5625,1.5625,-0.56884766,0.50201416,-0.5018921,-0.4152832
1c,4,None,29618075,1779733590008,-1.8264219,-1.0337994,11.064411,300.16504,-53.19889,-76.846275,-135.38998,-68.32233,238.0002,0.0
1c,1,None,3615158,1779733590035,-9.65,-1.48,-0.39,-1.875,2.375,0.9375,-0.56829834,0.5024414,-0.5020752,-0.41534424
1c,1,None,3615175,1779733590036,-9.53,-1.61,-0.5,-0.3125,-0.75,0.375,-0.5682373,0.50250244,-0.5020752,-0.41540527
1c,2,None,657181,1779733590043,-7.980715,1.1680326,4.934,-6.723362,7.22624,6.507619,10.935731,57.300472,204.70267,0.0
1c,3,None,3415176,1779733590047,9.090535,-12.133707,-2.0291135,-96.48423,122.26971,45.95922,-102.02413,-54.442097,335.8802,0.0
1c,1,None,3615193,1779733590065,-9.37,-1.65,-0.31,-0.25,-2.5625,0.6875,-0.5684204,0.50219727,-0.50183105,-0.41577148
1c,4,None,29618135,1779733590069,0.42043865,-0.06470657,4.7856455,210.42503,87.361115,-73.76627,-135.25316,-68.3818,237.94022,0.0
1c,1,None,3615216,1779733590095,-9.78,-1.57,0.05,-0.5625,-3.0,1.0625,-0.56866455,0.50183105,-0.5015869,-0.4161377
1c,1,None,3615239,1779733590096,-9.81,-1.52,0.21,-0.6875,-1.1875,0.6875,-0.56866455,0.50183105,-0.5015259,-0.41625977
1c,2,None,657241,1779733590103,-7.877824,0.95507145,4.893322,-10.153362,0.8562402,1.047619,10.949376,57.357784,204.71736,0.0
1c,3,None,3415236,1779733590107,11.995421,-11.75564,-2.7110682,-143.87422,59.899704,77.94922,-102.04701,-54.34519,335.84274,0.0
1c,4,None,29618195,1779733590128,2.746262,-1.660719,1.1270194,195.37505,128.5211,-107.57628,-135.05399,-68.454796,237.81662,0.0
1c,1,None,3615255,1779733590155,-9.65,-1.6,0.06,-0.8125,1.9375,0.5625,-0.5684204,0.50201416,-0.50164795,-0.41619873
1c,1,None,3615278,1779733590156,-9.68,-1.59,0.04,-1.0,1.8125,0.1875,-0.5682373,0.50219727,-0.501709,-0.41607666
1c,2,None,657301,1779733590163,-8.62917,1.0866767,4.479364,-8.333363,-3.9737597,-1.6823812,10.974106,57.412632,204.74019,0.0
1c,3,None,3415296,1779733590174,10.86601,-10.800904,-1.0097711,-122.384224,20.349699,69.82922,-102.01724,-54.260662,335.77686,0.0
1c,1,None,3615292,1779733590190,-9.57,-1.68,0.0,-1.1875,1.9375,0.25,-0.56817627,0.5023804,-0.501709,-0.41607666
1c,4,None,29618254,1779733590190,4.782554,-2.6250265,-3.2973096,71.685036,165.76111,-49.546272,-134.99493,-68.44385,237.77446,0.0
1c,1,None,3615315,1779733590214,-9.55,-1.66,0.05,-1.5625,2.5,0.9375,-0.567688,0.5027466,-0.5018921,-0.41601562
1c,1,None,3615333,1779733590215,-9.64,-1.64,0.04,-1.75,3.9375,1.25,-0.5671997,0.5031128,-0.50213623,-0.41589355
1c,1,None,3615360,1779733590217,-9.63,-1.56,-0.13,-1.5625,6.1875,1.1875,-0.5664673,0.5036011,-0.50268555,-0.4156494
1c,2,None,657361,1779733590223,-7.770147,0.9215719,4.9794636,-9.6633625,-5.58376,-1.4723811,10.918783,57.35913,204.69595,0.0
1c,3,None,3415356,1779733590231,12.098312,-9.6021,0.82073814,-58.964222,16.3597,67.37922,-101.93481,-54.231083,335.68707,0.0
1c,1,None,3615375,1779733590248,-9.62,-1.54,-0.35,-1.375,5.8125,0.8125,-0.5657959,0.50408936,-0.50323486,-0.41534424
1c,4,None,29618315,1779733590248,5.8545384,-1.5075784,-4.2951164,-34.57496,133.6311,-18.046272,-135.06125,-68.442024,237.81447,0.0
1c,1,None,3615402,1779733590275,-9.62,-1.52,-0.33,-1.25,4.375,0.375,-0.5652466,0.50457764,-0.5036011,-0.41503906
1c,1,None,3615416,1779733590276,-9.53,-1.64,-0.23,-0.75,2.9375,0.25,-0.5648804,0.50494385,-0.50390625,-0.41479492
1c,2,None,657421,1779733590283,-8.246318,0.82107335,4.9435716,-6.793362,-5.44376,1.467619,10.857717,57.413063,204.64659,0.0
1c,3,None,3415416,1779733590290,11.521642,-10.051951,-0.31345975,7.3257766,9.989699,62.40922,-101.83865,-54.175045,335.60657,0.0
1c,1,None,3615436,1779733590306,-9.33,-1.72,-0.11,-0.25,2.375,0.8125,-0.56469727,0.505188,-0.50408936,-0.41448975
1c,4,None,29618375,1779733590308,8.654141,0.61246204,-2.0937197,-92.884964,113.89111,-9.226272,-135.1597,-68.527885,237.8664,0.0
1c,1,None,3615463,1779733590337,-9.79,-1.54,0.0,-0.8125,2.75,1.3125,-0.5643921,0.50531006,-0.5043335,-0.41436768
1c,1,None,3615480,1779733590338,-9.69,-1.51,-0.17,-1.0625,4.125,1.0,-0.56396484,0.5055542,-0.5046997,-0.41430664
1c,3,None,3415476,1779733590348,11.442679,-9.836597,-1.6845471,19.505777,-4.080301,46.449223,-101.79639,-54.08653,335.5767,0.0
1c,1,None,3615504,1779733590366,-9.46,-1.58,-0.5,-0.75,2.875,0.875,-0.56329346,0.50598145,-0.505249,-0.4140625
1c,4,None,29618435,1779733590370,6.845167,-2.4192438,-3.225525,-16.86496,83.30112,-23.856272,-135.19647,-68.50051,237.8898,0.0
1c,2,None,657481,1779733590373,-7.7390394,0.7803954,5.0823555,-7.563362,-5.44376,3.077619,10.767737,57.370625,204.5734,0.0
1c,1,None,3615526,1779733590396,-9.63,-1.52,-0.4,-0.875,2.1875,0.875,-0.56311035,0.5060425,-0.5053711,-0.41400146
1c,1,None,3615544,1779733590398,-9.68,-1.52,-0.35,-0.625,0.8125,0.25,-0.5628662,0.5062866,-0.50549316,-0.41400146
1c,3,None,3415536,1779733590409,11.090935,-10.94926,-2.1942184,17.265776,-26.4803,38.399223,-101.79444,-53.995987,335.5837,0.0
1c,1,None,3615568,1779733590427,-9.68,-1.52,-0.36,-0.1875,0.6875,0.0,-0.56274414,0.5064087,-0.5055542,-0.4138794
1c,4,None,29618495,1779733590429,7.120342,-0.5001999,-3.9768713,16.735039,52.291115,-22.316273,-135.34766,-68.509766,238.03319,0.0
1c,2,None,657541,1779733590433,-8.117106,0.86414415,5.0344987,-4.343362,-3.5537596,3.147619,10.666184,57.41414,204.4896,0.0
1c,1,None,3615585,1779733590456,-9.62,-1.55,-0.29,-0.125,0.4375,-0.1875,-0.56274414,0.5064087,-0.5055542,-0.4138794
1c,3,None,3415596,1779733590473,9.506886,-14.966808,-0.59342,-52.664223,-20.9503,27.129221,-101.777115,-53.920376,335.55786,0.0
1c,4,None,29618555,1779733590491,5.2491546,-1.1031916,-3.7184463,20.235039,18.411112,-26.026272,-135.48245,-68.48611,238.16591,0.0
1c,2,None,657631,1779733590493,-8.021393,0.8880724,5.091926,-4.623362,-2.7837596,3.007619,10.555257,57.38316,204.39795,0.0
1c,1,None,3615613,1779733590516,-9.56,-1.59,-0.29,-0.25,0.375,-0.125,-0.56274414,0.5064697,-0.5055542,-0.41381836
1c,1,None,3615632,1779733590518,-9.66,-1.51,-0.35,0.25,0.6875,0.0,-0.5626831,0.50653076,-0.50561523,-0.41375732
1c,3,None,3415656,1779733590530,10.712869,-8.822041,-2.538785,-62.604225,-5.1303005,61.70922,-101.853546,-53.84425,335.6004,0.0
1c,1,None,3615658,1779733590548,-9.77,-1.47,-0.41,0.5,0.625,-0.5,-0.5626221,0.5065918,-0.50567627,-0.41357422
1c,1,None,3615674,1779733590549,-9.57,-1.55,-0.49,1.5625,-0.75,-1.0625,-0.5628052,0.50665283,-0.50567627,-0.41326904
1c,1,None,3615693,1779733590549,-9.53,-1.6,-0.38,1.8125,-1.75,-0.75,-0.5631714,0.5064697,-0.5055542,-0.41314697
1c,4,None,29618615,1779733590549,5.115156,-2.3259237,-4.833502,35.70504,-51.23889,-25.676271,-135.60815,-68.42494,238.30133,0.0
1c,2,None,657691,1779733590554,-8.040535,0.95028573,4.9507504,-4.273362,-2.57376,3.217619,10.5871105,57.437286,204.42654,0.0
1c,1,None,3615720,1779733590575,-9.54,-1.69,-0.1,1.5,-3.0625,-0.375,-0.56365967,0.50616455,-0.50531006,-0.413208
1c,3,None,3415716,1779733590590,12.268203,-9.511173,2.8163521,52.685776,-46.3603,29.089222,-101.770134,-53.832947,335.55603,0.0
1c,1,None,3615734,1779733590608,-9.56,-1.65,0.09,0.6875,-2.125,-0.375,-0.5639038,0.5059204,-0.505188,-0.41333008
1c,4,None,29618674,1779733590609,4.021637,0.8134593,-5.249853,25.555038,-60.128883,-33.516273,-135.83824,-68.39477,238.53206,0.0
1c,2,None,657751,1779733590612,-7.7653604,0.8904652,5.130212,-4.693362,-1.2437598,2.517619,10.553882,57.38184,204.40036,0.0
1c,1,None,3615764,1779733590635,-9.49,-1.68,0.05,0.0,-0.75,0.125,-0.5640259,0.5058594,-0.5050659,-0.41345215
1c,1,None,3615780,1779733590636,-9.63,-1.62,0.0,-0.75,-0.0625,0.375,-0.5640869,0.5058594,-0.50494385,-0.41345215
1c,3,None,3415776,1779733590649,8.054442,-12.057137,-0.6197411,31.755777,-27.670301,-28.31078,-101.73254,-53.77503,335.5414,0.0
1c,4,None,29618735,1779733590669,3.8397822,-4.2186465,-4.2305107,-0.27496004,-48.928886,-6.566272,-135.8686,-68.31073,238.56517,0.0
1c,2,None,657811,1779733590672,-8.107534,0.83543026,5.029713,-3.573362,-1.9437598,2.867619,10.448911,57.424255,204.31343,0.0
1c,1,None,3615798,1779733590694,-9.61,-1.6,-0.19,-0.9375,0.875,0.6875,-0.56396484,0.50598145,-0.5048828,-0.41351318
1c,1,None,3615823,1779733590696,-9.6,-1.6,-0.31,-0.5,1.25,0.5625,-0.56378174,0.5060425,-0.5050659,-0.41345215
1c,3,None,3415836,1779733590707,6.3531456,-12.868303,-4.261617,-2.4042234,-63.7903,-23.480778,-101.792595,-53.70487,335.60303,0.0
1c,1,None,3615844,1779733590725,-9.59,-1.57,-0.34,-0.3125,0.625,0.625,-0.5637207,0.5060425,-0.50512695,-0.41345215
1c,1,None,3615863,1779733590726,-9.66,-1.55,-0.25,-0.3125,0.375,0.5,-0.5637207,0.5061035,-0.50512695,-0.4133911
1c,4,None,29618794,1779733590729,4.1077785,-2.4048867,-5.1086764,-21.97496,-38.218887,8.763728,-135.97864,-68.23998,238.66286,0.0
1c,2,None,657872,1779733590732,-7.8227887,0.87132263,5.15414,-4.343362,-0.5437598,4.057619,10.40927,57.370132,204.28204,0.0
1c,1,None,3615882,1779733590755,-9.63,-1.6,-0.13,-0.1875,0.5625,0.25,-0.5637207,0.5061035,-0.50512695,-0.4133911
1c,1,None,3615903,1779733590756,-9.5,-1.62,-0.22,-0.4375,0.9375,0.3125,-0.56359863,0.5062866,-0.505188,-0.41326904
1c,3,None,3415896,1779733590767,13.3665085,-11.676677,-2.7493532,148.65578,-93.4703,-9.83078,-101.80616,-53.62972,335.67508,0.0
1c,1,None,3615923,1779733590785,-9.67,-1.55,-0.26,-0.625,1.4375,0.375,-0.5635376,0.50634766,-0.505249,-0.41326904
1c,4,None,29618855,1779733590789,3.6890347,-2.3378878,-9.245867,10.78504,-84.208885,-19.866272,-136.15346,-68.16656,238.8381,0.0
1c,2,None,657931,1779733590792,-8.12907,0.9167863,5.048856,-4.9033623,0.4362402,5.877619,10.39219,57.428574,204.27022,0.0
1c,1,None,3615943,1779733590815,-9.57,-1.57,-0.4,-0.25,1.125,0.3125,-0.5634155,0.5064697,-0.5053711,-0.41308594
1c,1,None,3615964,1779733590816,-9.64,-1.59,-0.41,0.0,-0.0625,-0.0625,-0.5634155,0.5065918,-0.5053711,-0.4130249
1c,3,None,3415957,1779733590832,15.120447,-6.2808633,5.4388857,460.50577,-126.6503,-22.010777,-101.63962,-53.657536,335.69708,0.0
1c,1,None,3615986,1779733590849,-9.64,-1.54,-0.33,0.5625,-0.8125,-0.0625,-0.56347656,0.50653076,-0.50531006,-0.4130249
1c,4,None,29618915,1779733590850,0.37976065,-4.158826,-5.5058846,32.55504,-82.738884,-24.276272,-136.23332,-68.076706,238.93246,0.0
1c,2,None,657991,1779733590853,-7.8682523,0.9646427,5.058427,-5.603362,-0.123759866,6.017619,10.431013,57.37032,204.30566,0.0
1c,1,None,3616008,1779733590875,-9.59,-1.57,-0.24,0.75,-0.3125,-0.0625,-0.5635376,0.5064697,-0.5053711,-0.41296387
1c,3,None,3416016,1779733590891,12.136598,-21.51357,6.5635123,100.49577,-118.1103,57.019222,-101.58344,-53.595886,335.7017,0.0
1c,1,None,3616029,1779733590909,-9.61,-1.61,-0.15,0.875,0.375,-0.0625,-0.56359863,0.5064087,-0.5053711,-0.4128418
1c,4,None,29618975,1779733590910,-1.6684957,-5.3887367,0.997807,127.19504,1.2611113,-66.90627,-136.14082,-68.06835,238.89406,0.0
1c,1,None,3616047,1779733590910,-9.61,-1.56,-0.17,0.75,0.1875,-0.125,-0.56365967,0.5064087,-0.5053711,-0.41278076
1c,2,None,658051,1779733590912,-7.987893,1.069927,4.895715,-4.133362,-0.6837598,4.477619,10.540409,57.401134,204.39984,0.0
1c,1,None,3616065,1779733590935,-9.6,-1.59,-0.23,0.5,-0.375,-0.1875,-0.5637207,0.5064087,-0.5053711,-0.41278076
1c,3,None,3416076,1779733590949,12.612769,-8.633007,7.587641,-95.43423,-5.1303005,91.94922,-101.5353,-53.573326,335.63333,0.0
1c,1,None,3616092,1779733590967,-9.55,-1.64,-0.16,0.6875,0.0625,-0.0625,-0.56378174,0.50634766,-0.5053711,-0.41271973
1c,1,None,3616106,1779733590969,-9.63,-1.61,-0.14,0.625,0.0,0.0625,-0.5639038,0.5062866,-0.5053711,-0.41259766
1c,4,None,29619035,1779733590969,-4.322136,-2.7470605,-7.235895,-3.98496,1.6811113,7.433728,-136.19621,-68.00643,238.94328,0.0
1c,2,None,658111,1779733590975,-7.8754306,1.0292488,4.9651065,-5.253362,-2.5037599,3.427619,10.675451,57.380196,204.51569,0.0
1c,1,None,3616129,1779733590996,-9.45,-1.64,-0.2,0.125,0.1875,0.3125,-0.56396484,0.50634766,-0.50531006,-0.41259766
1c,3,None,3416136,1779733591008,13.184653,-11.564215,7.678568,-154.02423,32.8097,62.54922,-101.48983,-53.553917,335.5442,0.0
1c,1,None,3616146,1779733591027,-9.54,-1.59,-0.26,-0.1875,-0.0625,0.5,-0.56396484,0.50634766,-0.50531006,-0.41253662
1c,1,None,3616171,1779733591031,-9.67,-1.52,-0.32,-0.125,-0.1875,0.3125,-0.56396484,0.5064087,-0.50531006,-0.41253662
1c,4,None,29619095,1779733591031,-3.8507502,-4.355037,-2.2229323,85.05504,-48.788887,-39.46627,-136.18651,-67.9585,238.96997,0.0
1c,2,None,658171,1779733591033,-8.021393,1.1967466,4.929215,-7.843362,-2.6437597,1.607619,10.80268,57.394352,204.62537,0.0
1c,1,None,3616186,1779733591059,-9.62,-1.56,-0.27,0.125,-1.5,0.0,-0.5640869,0.50634766,-0.505188,-0.41259766
1c,3,None,3416196,1779733591068,13.644076,-11.308183,2.926422,-183.98422,82.439705,91.10922,-101.42319,-53.525135,335.41837,0.0
1c,1,None,3616209,1779733591087,-9.56,-1.67,-0.12,-0.1875,-2.4375,-0.0625,-0.56427,0.5062256,-0.50494385,-0.41278076
1c,1,None,3616228,1779733591088,-9.56,-1.63,0.06,-0.25,-1.375,0.3125,-0.56451416,0.5061035,-0.5046997,-0.41290283
1c,4,None,29619155,1779733591090,-1.029612,-3.711368,-4.642076,-7.6949596,12.601111,-16.156271,-136.2092,-67.893394,238.9889,0.0
1c,2,None,658231,1779733591094,-7.736647,0.9120006,5.0967126,-7.353362,-3.2037597,-0.562381,10.76799,57.338215,204.5981,0.0
1c,1,None,3616253,1779733591116,-9.67,-1.61,0.05,-0.5625,0.75,0.6875,-0.56433105,0.50616455,-0.5048828,-0.4128418
1c,3,None,3416256,1779733591133,14.136997,-5.5749803,-1.3016955,-143.17422,96.439705,114.41922,-101.423325,-53.56582,335.35397,0.0
1c,1,None,3616272,1779733591151,-9.45,-1.69,-0.03,-0.6875,2.75,0.75,-0.56427,0.5062256,-0.5048828,-0.41278076
1c,4,None,29619214,1779733591151,0.81525433,-5.2858458,-5.312066,-14.55496,66.78111,19.193727,-136.15862,-67.83038,238.92946,0.0
1c,1,None,3616288,1779733591151,-9.65,-1.62,-0.01,-1.625,2.0,1.0625,-0.5640869,0.5064087,-0.5048828,-0.4128418
1c,2,None,658291,1779733591155,-8.088392,1.0053207,4.9603214,-8.123362,-3.1337595,-0.70238113,10.8194275,57.38806,204.64355,0.0
1c,1,None,3616313,1779733591177,-9.6,-1.55,-0.24,-1.8125,2.75,1.125,-0.56347656,0.5067749,-0.50512695,-0.4128418
1c,3,None,3416316,1779733591191,13.696718,-11.401503,-2.2827528,-97.32423,53.8097,90.47922,-101.42182,-53.463394,335.3108,0.0
1c,4,None,29619275,1779733591210,0.79371893,-4.2569313,-3.0484562,-36.18496,96.60111,72.88373,-136.0282,-67.764786,238.78125,0.0
1c,2,None,658351,1779733591214,-7.8754306,0.8976437,5.039284,-10.083363,-3.4137597,0.06761885,10.737103,57.342773,204.57709,0.0
1c,3,None,3416376,1779733591249,11.658033,-9.623636,-2.1176481,-156.19423,67.4597,117.289215,-101.455185,-53.35637,335.2752,0.0
1c,1,None,3616328,1779733591268,-9.57,-1.58,-0.27,-1.75,3.0,1.1875,-0.5632324,0.506958,-0.50531006,-0.4128418
1c,1,None,3616353,1779733591268,-9.68,-1.5,-0.46,-1.9375,3.625,1.0625,-0.5626831,0.5073242,-0.5055542,-0.4128418
1c,1,None,3616373,1779733591271,-9.68,-1.5,-0.59,-1.3125,3.0625,0.75,-0.5621948,0.5076294,-0.5058594,-0.41271973
1c,4,None,29619334,1779733591271,5.581757,-4.378966,-1.5122639,-82.10496,144.06111,100.95373,-135.7641,-67.73143,238.48749,0.0
1c,2,None,658412,1779733591273,-7.839538,0.85218,5.187639,-10.503363,-4.5337596,-1.402381,10.671655,57.292004,204.52466,0.0
1c,1,None,3616388,1779733591296,-9.45,-1.59,-0.63,-0.4375,1.6875,0.4375,-0.5620117,0.50775146,-0.5060425,-0.41259766
1c,1,None,3616431,1779733591297,-9.62,-1.54,-0.24,-0.1875,-2.0,0.25,-0.5621948,0.5076294,-0.5058594,-0.41271973
1c,3,None,3416436,1779733591308,10.248661,-9.637994,-5.022535,-60.014225,57.6597,120.85922,-101.51984,-53.282436,335.2935,0.0
1c,1,None,3616454,1779733591325,-9.6,-1.6,-0.22,-0.1875,-1.4375,0.0,-0.5623779,0.5075073,-0.50567627,-0.41290283
1c,4,None,29619395,1779733591328,7.060521,3.622633,-3.5557344,47.81504,215.3211,8.483728,-135.78865,-67.81781,238.50499,0.0
1c,2,None,658471,1779733591333,-7.8826094,0.8880724,5.0608196,-12.463362,-3.9737597,-3.222381,10.584291,57.24757,204.4541,0.0
1c,1,None,3616479,1779733591355,-9.57,-1.63,-0.21,-0.25,-0.9375,0.375,-0.56243896,0.5074463,-0.5055542,-0.41296387
1c,1,None,3616497,1779733591356,-9.67,-1.59,-0.12,-0.625,-1.0625,0.3125,-0.56256104,0.5074463,-0.5053711,-0.41314697
1c,3,None,3416496,1779733591367,12.287346,-13.114763,13.148561,-31.804222,116.5997,14.459221,-101.40344,-53.28315,335.16684,0.0
1c,1,None,3616516,1779733591386,-9.63,-1.55,-0.12,-0.8125,-0.4375,0.1875,-0.56256104,0.5074463,-0.505249,-0.413208
1c,4,None,29619455,1779733591389,8.728319,-1.6894331,-7.3220377,-138.10497,135.3811,61.823727,-135.85506,-67.80142,238.5036,0.0
1c,2,None,658531,1779733591392,-7.585899,0.7277533,5.2259245,-12.533361,-1.5937599,-3.362381,10.512341,57.199425,204.3966,0.0
1c,1,None,3616537,1779733591415,-9.7,-1.65,-0.1,-1.3125,-0.1875,0.25,-0.56256104,0.5075073,-0.50512695,-0.41326904
1c,1,None,3616558,1779733591416,-9.39,-1.66,-0.29,-1.1875,0.625,0.625,-0.5623779,0.50775146,-0.5050049,-0.41333008
1c,3,None,3416556,1779733591428,10.887545,-11.77957,-8.090134,-101.034225,8.449699,83.61922,-101.51245,-53.21835,335.22073,0.0
1c,1,None,3616576,1779733591445,-9.73,-1.44,-0.5,-0.875,-0.1875,0.9375,-0.5621948,0.5078125,-0.5050659,-0.41345215
1c,4,None,29619515,1779733591448,6.096214,-3.6084769,-4.314259,211.33504,140.0711,-125.35628,-135.8,-67.80069,238.5199,0.0
1c,2,None,658591,1779733591452,-8.231961,0.59854084,5.17089,-11.763362,-1.6637598,-3.2923808,10.371342,57.21837,204.28085,0.0
1c,1,None,3616599,1779733591475,-9.8,-1.41,-0.56,-0.5625,-2.125,0.125,-0.5623169,0.5076904,-0.5048828,-0.4136963
1c,3,None,3416616,1779733591493,13.199012,-6.0439734,-3.481557,5.2257767,-73.170296,43.859222,-101.616356,-53.252098,335.31857,0.0
1c,1,None,3616623,1779733591511,-9.62,-1.51,-0.4,-0.0625,-3.5,-0.6875,-0.5626221,0.5074463,-0.50457764,-0.41394043
1c,1,None,3616638,1779733591511,-9.61,-1.57,-0.24,0.4375,-2.8125,-0.75,-0.5628662,0.5073242,-0.5042114,-0.41412354
1c,4,None,29619575,1779733591511,7.060521,-6.8483586,-7.3435726,7.9850397,127.751114,72.18372,-135.68315,-67.742905,238.39572,0.0
1c,2,None,658651,1779733591512,-7.640934,0.4454002,5.2809596,-11.693362,-0.47375977,-3.152381,10.261376,57.185566,204.19125,0.0
1c,1,None,3616664,1779733591538,-9.6,-1.63,0.01,0.625,-2.5,-0.625,-0.56329346,0.5071411,-0.5038452,-0.4142456
1c,1,None,3616683,1779733591538,-9.63,-1.62,0.17,-0.125,-1.25,-0.5625,-0.5633545,0.5070801,-0.5037842,-0.41430664
1c,3,None,3416676,1779733591548,12.256239,-7.4916315,-3.6538403,-51.404224,-71.0003,37.13922,-101.75633,-53.257534,335.42932,0.0
1c,1,None,3616709,1779733591568,-9.67,-1.66,0.15,-0.4375,0.75,-0.125,-0.5631714,0.5072632,-0.50390625,-0.4142456
1c,4,None,29619635,1779733591569,11.937095,-7.393922,-5.816952,55.515038,-53.12889,94.723724,-135.5827,-67.63628,238.3167,0.0
1c,2,None,658711,1779733591572,-7.865859,0.41190067,5.180461,-8.403362,0.2962402,0.6276189,10.127587,57.174095,204.0814,0.0
1c,1,None,3616725,1779733591594,-9.58,-1.67,0.06,-1.5625,3.75,0.5625,-0.56292725,0.50756836,-0.5040283,-0.41412354
1c,1,None,3616744,1779733591596,-9.61,-1.56,-0.37,-1.75,4.75,0.8125,-0.5623169,0.5079956,-0.50439453,-0.4138794
1c,3,None,3416736,1779733591609,12.65584,-5.4816604,-4.0534415,66.05577,-58.4703,0.3892212,-101.84487,-53.299587,335.5307,0.0
1c,1,None,3616769,1779733591626,-9.7,-1.37,-0.63,-1.125,4.25,0.125,-0.5617676,0.50842285,-0.5048218,-0.41363525
1c,4,None,29619695,1779733591628,12.896617,-5.278667,-10.284352,-102.61496,-105.418884,183.69373,-135.65811,-67.51296,238.34564,0.0
1c,2,None,658771,1779733591633,-8.064464,0.43343607,5.206782,-10.153362,1.5562402,3.497619,9.988902,57.174404,203.96855,0.0
1c,1,None,3616784,1779733591657,-9.62,-1.54,-0.69,-0.8125,2.8125,-0.625,-0.5615845,0.508728,-0.5048828,-0.41345215
1c,1,None,3616804,1779733591657,-9.48,-1.6,-0.65,-0.25,-1.625,-0.75,-0.56170654,0.508728,-0.50476074,-0.41345215
1c,3,None,3416796,1779733591667,10.184055,-3.7444706,-1.0169495,151.45578,-43.560303,-62.750782,-101.827354,-53.39113,335.57065,0.0
1c,1,None,3616828,1779733591685,-9.55,-1.58,-0.46,0.75,-2.375,-0.3125,-0.5618286,0.508667,-0.5046387,-0.41345215
1c,4,None,29619754,1779733591689,12.733904,-1.3903303,-3.3667014,-298.12497,-132.9989,143.79373,-135.87283,-67.503174,238.44658,0.0
1c,2,None,658832,1779733591692,-7.81561,0.4454002,5.1852465,-6.163362,2.53624,2.867619,9.862614,57.157326,203.86485,0.0
1c,1,None,3616844,1779733591716,-9.6,-1.53,-0.39,1.25,-2.1875,-0.375,-0.5621338,0.50842285,-0.5045166,-0.41351318
1c,3,None,3416856,1779733591728,9.284353,-8.831612,-0.6867401,183.16577,-48.460304,-175.31078,-101.73554,-53.394337,335.5656,0.0
1c,1,None,3616870,1779733591749,-9.71,-1.55,-0.26,1.25,-2.1875,-1.0,-0.56243896,0.50823975,-0.5043335,-0.41345215
1c,1,None,3616885,1779733591749,-9.45,-1.65,-0.33,1.125,-3.0625,-0.9375,-0.5628662,0.5081177,-0.5040283,-0.41345215
1c,4,None,29619815,1779733591749,9.029814,5.7378893,1.8568304,-342.92496,-89.528885,59.37373,-136.05258,-67.51537,238.50464,0.0
1c,2,None,658891,1779733591754,-8.184105,0.596148,5.2043896,-11.483362,4.42624,2.027619,9.722297,57.169655,203.75085,0.0
1c,1,None,3616911,1779733591777,-9.59,-1.63,-0.16,1.375,-3.5,-0.5625,-0.5633545,0.50775146,-0.50372314,-0.41357422
1c,3,None,3416916,1779733591789,10.284553,-15.1367,-0.67716885,-116.854225,-24.3803,-166.56078,-101.75902,-53.38507,335.56375,0.0
1c,1,None,3616925,1779733591812,-9.53,-1.61,-0.24,1.6875,-2.6875,-0.6875,-0.56378174,0.5074463,-0.50354004,-0.41363525
1c,1,None,3616950,1779733591812,-9.52,-1.63,-0.27,1.6875,-3.125,-0.75,-0.564209,0.50720215,-0.5032959,-0.41363525
1c,4,None,29619875,1779733591812,5.7875395,1.9955133,2.7278178,-137.05496,-48.01889,-67.956276,-136.15999,-67.56456,238.57063,0.0
1c,2,None,658952,1779733591812,-8.026178,0.47172123,4.934,-10.713362,6.80624,4.967619,9.602072,57.206516,203.6541,0.0
1c,1,None,3616966,1779733591835,-9.57,-1.61,-0.17,1.8125,-3.625,-0.75,-0.56469727,0.50683594,-0.5029907,-0.4136963
1c,3,None,3416976,1779733591852,14.448065,-9.523137,-2.2971096,-170.89423,65.009705,-131.84077,-101.84844,-53.50355,335.58005,0.0
1c,1,None,3616990,1779733591871,-9.64,-1.63,-0.08,1.8125,-2.9375,-0.6875,-0.5652466,0.50653076,-0.5027466,-0.41375732
1c,1,None,3617012,1779733591872,-9.56,-1.62,-0.04,1.3125,-3.0,-0.5,-0.5656128,0.50616455,-0.5025635,-0.4138794
1c,4,None,29619935,1779733591872,2.9879375,-3.6252265,1.9286151,-93.86496,-4.128888,-80.276276,-136.12442,-67.58412,238.51555,0.0
1c,2,None,659011,1779733591873,-7.698362,0.53393465,5.0823555,-2.7333622,13.10624,6.507619,9.486295,57.18684,203.5592,0.0
1c,1,None,3617026,1779733591895,-9.66,-1.63,-0.15,1.1875,-2.1875,-0.5,-0.565979,0.5059204,-0.5023804,-0.41394043
1c,3,None,3417036,1779733591912,19.439493,-6.9221396,-2.0721843,9.985777,72.009705,-61.07078,-101.830536,-53.603012,335.55643,0.0
1c,1,None,3617053,1779733591929,-9.6,-1.57,-0.26,1.375,-1.6875,-0.375,-0.56622314,0.50567627,-0.5022583,-0.41400146
1c,4,None,29619995,1779733591929,2.2796617,-3.673083,1.1294123,-53.964962,26.11111,-74.39628,-136.04639,-67.59838,238.43073,0.0
1c,1,None,3617072,1779733591929,-9.72,-1.57,-0.28,1.375,-1.625,-0.3125,-0.5664673,0.5054321,-0.50219727,-0.41400146
1c,2,None,659071,1779733591933,-8.033357,0.73971736,4.74736,-1.683362,11.98624,5.877619,9.471753,57.249382,203.54895,0.0
1c,1,None,3617086,1779733591955,-9.59,-1.56,-0.37,2.0,-2.0,-0.5625,-0.56677246,0.505188,-0.50219727,-0.4138794
1c,3,None,3417096,1779733591967,21.406393,-9.319748,-2.5531416,1.9357764,46.8097,-23.06078,-101.82526,-53.688305,335.5442,0.0
1c,1,None,3617106,1779733591988,-9.62,-1.58,-0.27,2.5,-3.0,-0.75,-0.56726074,0.5048828,-0.5020752,-0.41381836
1c,1,None,3617129,1779733591988,-9.66,-1.61,0.01,2.4375,-3.1875,-0.625,-0.567749,0.5045166,-0.5018921,-0.41375732
1c,4,None,29620055,1779733591988,2.7271197,-2.4982069,0.42831525,-37.93496,36.47111,-60.746273,-135.93579,-67.61519,238.31868,0.0
1c,1,None,3617146,1779733592015,-9.64,-1.65,0.07,2.25,-2.4375,-1.0625,-0.5682373,0.5042114,-0.501709,-0.41375732
1c,2,None,659131,1779733592023,-8.054893,0.73253894,4.4913282,-2.7333622,10.376241,2.447619,9.469645,57.311504,203.54875,0.0
1c,3,None,3417156,1779733592026,19.621347,-5.2782702,-0.19381864,-31.104223,9.4997,33.63922,-101.814735,-53.744812,335.52362,0.0
1c,1,None,3617166,1779733592045,-9.56,-1.7,0.14,1.8125,-1.5,-1.0,-0.56866455,0.5039673,-0.5015869,-0.41357422
1c,4,None,29620115,1779733592049,2.7558336,-2.5077784,0.24646074,-16.79496,31.78111,-40.586273,-135.80443,-67.6219,238.19272,0.0
1c,1,None,3617198,1779733592076,-9.66,-1.62,0.09,0.9375,-0.5,-0.625,-0.5689087,0.5038452,-0.5015259,-0.41351318
1c,1,None,3617207,1779733592076,-9.53,-1.66,-0.15,0.75,0.5,-0.8125,-0.5690918,0.5038452,-0.5014038,-0.41333008
1c,3,None,3417216,1779733592087,17.76691,-5.0892367,-0.59581286,42.46578,8.3797,26.989222,-101.78496,-53.80537,335.5087,0.0
1c,1,None,3617233,1779733592105,-9.39,-1.7,-0.25,0.875,0.5,-0.5625,-0.56921387,0.5037842,-0.50146484,-0.413208
1c,1,None,3617248,1779733592106,-9.63,-1.65,-0.15,0.875,-1.0625,-0.1875,-0.56933594,0.5036621,-0.50146484,-0.413208
1c,4,None,29620175,1779733592109,2.4423738,-1.8473593,-0.45942193,31.22504,25.831112,-23.226273,-135.63942,-67.60113,238.05006,0.0
1c,1,None,3617273,1779733592135,-9.71,-1.57,-0.16,1.1875,-1.3125,-0.125,-0.56951904,0.503479,-0.5014038,-0.41314697
1c,3,None,3417276,1779733592147,18.982464,-4.687243,-0.2656033,23.915777,6.9096994,9.909222,-101.76163,-53.870422,335.4948,0.0
1c,1,None,3617291,1779733592170,-9.55,-1.66,0.0,1.3125,-1.375,-0.625,-0.5698242,0.5032959,-0.5013428,-0.41314697
1c,1,None,3617307,1779733592171,-9.52,-1.68,0.08,0.6875,-1.0625,-0.625,-0.57006836,0.5031738,-0.50115967,-0.41308594
1c,4,None,29620235,1779733592171,3.2320051,-0.6533406,-0.9523434,91.21504,21.911112,11.563728,-135.73505,-67.65444,238.1648,0.0
1c,2,None,659294,1779733592174,-8.011822,0.42625764,4.761717,-4.063362,-0.123759866,-1.822381,9.326613,57.416054,203.43102,0.0
1c,1,None,3617331,1779733592198,-9.67,-1.69,0.19,0.4375,-0.625,-0.3125,-0.5703125,0.5031128,-0.50097656,-0.41314697
1c,3,None,3417336,1779733592208,19.068605,-4.768599,-0.36610186,42.185776,-9.890301,38.11922,-101.73819,-53.92505,335.48816,0.0
1c,1,None,3617353,1779733592228,-9.6,-1.74,0.12,-0.0625,1.75,0.0625,-0.57037354,0.5031128,-0.5009155,-0.41308594
1c,4,None,29620294,1779733592228,5.665506,3.0579274,-2.4047868,172.83504,26.811111,43.55373,-135.79306,-67.69052,238.26764,0.0
1c,2,None,659417,1779733592233,-7.987893,0.100833714,4.996214,-5.603362,-2.6437597,0.06761885,9.137623,57.485153,203.27338,0.0
1c,1,None,3617378,1779733592259,-9.47,-1.73,0.06,-0.6875,2.3125,0.3125,-0.5703125,0.50335693,-0.50097656,-0.41290283
1c,1,None,3617387,1779733592260,-9.67,-1.62,-0.04,-1.3125,3.0,0.5625,-0.57006836,0.5036621,-0.5010376,-0.41271973
1c,3,None,3417396,1779733592269,18.573292,-3.3879404,-0.6963114,-4.4342237,-23.400301,50.789223,-101.74565,-53.975796,335.49554,0.0
1c,1,None,3617414,1779733592287,-9.52,-1.68,-0.15,-0.875,3.625,0.4375,-0.56970215,0.5039673,-0.5013428,-0.41253662
1c,1,None,3617432,1779733592290,-9.55,-1.7,-0.04,-1.1875,3.5,0.8125,-0.56921387,0.50427246,-0.50164795,-0.41235352
1c,4,None,29620355,1779733592291,3.4784658,-1.591327,-2.6129622,206.78503,31.431112,0.7837279,-135.77249,-67.64149,238.3124,0.0
1c,1,None,3617460,1779733592317,-9.59,-1.65,-0.07,-1.75,2.75,0.9375,-0.56866455,0.5046997,-0.5018921,-0.41229248
1c,2,None,659437,1779733592323,-7.9998574,0.50282794,4.57747,-5.5333624,-2.0137596,1.467619,9.079468,57.540207,203.22617,0.0
1c,3,None,3417457,1779733592328,18.27658,-3.7229354,-0.5575277,12.575776,-14.440301,62.759224,-101.73868,-54.0227,335.4937,0.0
1c,1,None,3617479,1779733592348,-9.66,-1.64,-0.01,-2.3125,2.5625,0.875,-0.56817627,0.5050659,-0.50201416,-0.41235352
1c,4,None,29620415,1779733592350,2.3490536,-1.3137597,-5.0608196,144.76505,53.83111,-8.106272,-135.80879,-67.601555,238.38847,0.0
1c,1,None,3617497,1779733592377,-9.53,-1.67,-0.05,-2.6875,2.8125,0.8125,-0.567688,0.50549316,-0.50213623,-0.41241455
1c,1,None,3617519,1779733592378,-9.66,-1.63,-0.19,-3.0625,2.75,0.875,-0.5671387,0.5059204,-0.5022583,-0.4124756
1c,3,None,3417516,1779733592389,17.302702,-5.984153,-1.0241281,1.4457765,-3.5203006,55.54922,-101.72944,-54.074368,335.48505,0.0
1c,1,None,3617533,1779733592408,-9.61,-1.6,-0.31,-2.875,2.625,0.75,-0.56689453,0.5061035,-0.50231934,-0.41253662
1c,4,None,29620475,1779733592410,2.9711874,-3.347659,-5.9126644,4.6950397,37.101112,-20.916271,-135.85982,-67.54807,238.43568,0.0
1c,2,None,659492,1779733592414,-8.224783,0.5506844,4.4745784,-6.233362,-3.0637598,2.377619,9.049402,57.597523,203.20299,0.0
1c,1,None,3617557,1779733592437,-9.64,-1.58,-0.42,-2.125,2.5,0.5625,-0.5661011,0.5067749,-0.5025635,-0.41241455
1c,1,None,3617576,1779733592439,-9.62,-1.59,-0.38,-1.625,1.6875,0.3125,-0.56573486,0.5071411,-0.50268555,-0.41235352
1c,3,None,3417576,1779733592457,17.64009,-5.187343,-0.42113677,11.665776,-7.580301,47.07922,-101.7122,-54.126114,335.47394,0.0
1c,1,None,3617593,1779733592473,-9.56,-1.65,-0.34,-1.25,1.375,0.375,-0.5656128,0.5073242,-0.50268555,-0.41235352
1c,4,None,29620535,1779733592473,3.9067812,-1.9981068,-6.151947,-78.04496,20.231112,-15.456272,-135.9897,-67.50219,238.53017,0.0
1c,2,None,659582,1779733592473,-8.215212,0.44061458,4.7641096,-4.063362,-5.0937595,3.217619,8.968419,57.646687,203.13622,0.0
1c,1,None,3617617,1779733592500,-9.56,-1.64,-0.26,-0.4375,1.625,0.625,-0.5652466,0.50756836,-0.5029297,-0.4121704
1c,1,None,3617634,1779733592500,-9.62,-1.61,-0.15,-0.375,1.5625,0.6875,-0.5651245,0.5076294,-0.5031128,-0.41210938
1c,3,None,3417636,1779733592508,18.075584,-5.0844517,-0.15314065,3.3357763,-8.840301,44.48922,-101.69536,-54.177425,335.46115,0.0
1c,1,None,3617656,1779733592530,-9.6,-1.63,-0.21,-0.8125,0.375,0.5625,-0.5650635,0.50775146,-0.50305176,-0.4121704
1c,4,None,29620595,1779733592530,4.208277,-1.3831519,-5.206782,-58.58496,8.751112,-14.546272,-136.13213,-67.460526,238.64342,0.0
1c,2,None,659671,1779733592533,-8.368352,0.5123992,4.8000026,-5.463362,1.7662401,7.067619,8.908983,57.70193,203.08896,0.0
1c,1,None,3617679,1779733592555,-9.59,-1.62,-0.36,-0.875,0.4375,0.5,-0.56500244,0.5078125,-0.5029907,-0.4121704
1c,1,None,3617695,1779733592556,-9.58,-1.61,-0.38,-0.25,0.4375,0.4375,-0.56500244,0.50787354,-0.5029907,-0.4121704
1c,3,None,3417696,1779733592567,17.896122,-4.3857474,-0.14356935,1.1657764,-14.230301,48.059223,-101.68456,-54.22756,335.45358,0.0
1c,1,None,3617716,1779733592588,-9.6,-1.65,-0.09,-0.3125,-0.6875,0.25,-0.56500244,0.50787354,-0.5029297,-0.4121704
1c,4,None,29620655,1779733592588,3.9737804,-1.9574288,-3.696911,-26.104961,-0.6988888,-4.0462723,-136.22168,-67.4045,238.71814,0.0
1c,2,None,659731,1779733592593,-8.160176,0.6128978,4.668397,-3.433362,4.63624,8.537619,8.879357,57.761086,203.06664,0.0
1c,1,None,3617746,1779733592615,-9.61,-1.62,-0.05,-0.875,-0.4375,0.5,-0.5650635,0.50787354,-0.50286865,-0.4121704
1c,1,None,3617756,1779733592617,-9.63,-1.63,-0.18,-0.875,1.1875,0.375,-0.5649414,0.5079956,-0.5028076,-0.41223145
1c,3,None,3417756,1779733592627,17.704697,-4.9504533,-0.6149554,3.4057765,-15.770301,51.97922,-101.67821,-54.278156,335.4504,0.0
1c,1,None,3617779,1779733592648,-9.61,-1.59,-0.43,-0.4375,1.8125,0.625,-0.5647583,0.5081787,-0.5029907,-0.41210938
1c,1,None,3617796,1779733592648,-9.63,-1.58,-0.49,-0.0625,0.8125,0.4375,-0.56463623,0.5083008,-0.5031128,-0.4119873
1c,4,None,29620714,1779733592648,3.5502503,-1.579363,-4.091727,-9.02496,-5.3188887,7.083728,-136.32182,-67.34838,238.80748,0.0
1c,2,None,659791,1779733592653,-8.208033,0.7780025,4.4578285,-4.9033623,2.32624,7.347619,8.897617,57.818905,203.08495,0.0
1c,1,None,3617822,1779733592676,-9.64,-1.58,-0.43,0.4375,-0.75,0.1875,-0.56469727,0.50823975,-0.50305176,-0.41204834
1c,3,None,3417816,1779733592687,17.680769,-4.826027,-0.57906306,1.5857763,-14.3703,50.29922,-101.671906,-54.32934,335.44653,0.0
1c,1,None,3617836,1779733592705,-9.54,-1.64,-0.26,1.0,-0.9375,-0.0625,-0.56481934,0.5081177,-0.50305176,-0.4119873
1c,4,None,29620775,1779733592708,3.547858,-1.6655046,-3.9290147,7.7750397,-3.7788887,10.583728,-136.40672,-67.290405,238.88765,0.0
1c,1,None,3617863,1779733592735,-9.58,-1.67,0.0,0.75,-0.9375,0.0625,-0.56500244,0.5079956,-0.5029907,-0.4119873
1c,2,None,659851,1779733592742,-8.246318,0.68946815,4.460222,-4.343362,-1.4537598,5.2476187,8.897188,57.87659,203.08679,0.0
1c,3,None,3417876,1779733592747,17.565912,-4.8403835,-0.1914258,1.2357764,-11.430301,48.75922,-101.6577,-54.379353,335.4356,0.0
1c,1,None,3617888,1779733592766,-9.61,-1.67,0.07,0.5,0.0625,0.25,-0.5650635,0.5079346,-0.5029907,-0.4119873
1c,1,None,3617905,1779733592766,-9.6,-1.67,-0.11,-0.375,1.3125,0.4375,-0.5649414,0.5079956,-0.5031128,-0.41192627
1c,4,None,29620834,1779733592769,3.7536407,-1.5721844,-4.213761,15.40504,1.541112,13.873728,-136.49228,-67.23551,238.97,0.0
1c,1,None,3617925,1779733592795,-9.57,-1.63,-0.27,-0.375,1.9375,0.6875,-0.5647583,0.50805664,-0.50335693,-0.4118042
1c,1,None,3617941,1779733592796,-9.64,-1.55,-0.37,-0.1875,1.8125,0.5625,-0.56469727,0.5081177,-0.50341797,-0.41174316
1c,2,None,659941,1779733592804,-8.200854,0.73971736,4.584648,-5.8833623,-1.7337598,4.617619,8.90308,57.933754,203.09431,0.0
1c,3,None,3417936,1779733592814,17.556341,-4.713564,-0.7585248,0.6757764,-12.550301,49.179222,-101.654655,-54.431915,335.4338,0.0
1c,1,None,3617965,1779733592829,-9.57,-1.57,-0.43,0.0,0.75,0.125,-0.56451416,0.50823975,-0.5036011,-0.41156006
1c,4,None,29620895,1779733592830,3.7536407,-1.6535406,-4.436293,11.13504,7.9811115,12.823729,-136.57483,-67.18152,239.0477,0.0
1c,1,None,3617984,1779733592855,-9.6,-1.61,-0.37,0.25,-0.1875,0.1875,-0.56451416,0.5083008,-0.5036011,-0.41156006
1c,2,None,660001,1779733592862,-8.3420315,0.799538,4.610969,-6.093362,-1.3137599,4.267619,8.920931,57.990185,203.11198,0.0
1c,3,None,3417997,1779733592871,17.620949,-4.9049897,-1.012164,0.4657764,-14.860301,48.969223,-101.65676,-54.485317,335.43658,0.0
1c,1,None,3618007,1779733592887,-9.55,-1.64,-0.21,0.5625,-0.625,0.0625,-0.5645752,0.5083008,-0.5036011,-0.41149902
1c,1,None,3618025,1779733592887,-9.58,-1.62,-0.19,0.3125,-0.9375,0.125,-0.56463623,0.50823975,-0.503479,-0.41156006
1c,4,None,29620955,1779733592889,3.8732817,-1.4381863,-4.4195433,6.9350405,12.041112,8.763728,-136.66766,-67.132904,239.1335,0.0
1c,1,None,3618046,1779733592918,-9.64,-1.61,-0.17,0.0,-0.25,0.0,-0.56469727,0.5081787,-0.50341797,-0.4116211
1c,2,None,660061,1779733592923,-8.164962,0.7732169,4.6061835,-4.763362,-0.5437598,3.847619,8.935953,58.047108,203.12683,0.0
1c,3,None,3418056,1779733592929,17.288345,-5.0461664,-1.4763715,1.9357764,-14.440301,48.899223,-101.66742,-54.540306,335.4467,0.0
1c,1,None,3618067,1779733592946,-9.52,-1.65,-0.22,0.25,-0.0625,0.0,-0.56469727,0.50823975,-0.50341797,-0.41156006
1c,1,None,3618087,1779733592948,-9.62,-1.64,-0.18,0.3125,-0.25,0.0625,-0.56469727,0.50823975,-0.50341797,-0.41156006
1c,4,None,29621015,1779733592950,3.8373892,-1.584149,-4.6229334,-1.81496,12.741112,0.36372805,-136.76363,-67.08433,239.22011,0.0
1c,1,None,3618109,1779733592977,-9.6,-1.63,-0.19,-0.0625,-0.1875,0.0625,-0.56469727,0.50823975,-0.50341797,-0.41156006
1c,3,None,3418116,1779733592988,17.374487,-5.4864454,-1.2610176,2.4957764,-9.1203,45.32922,-101.66928,-54.596306,335.44885,0.0
1c,1,None,3618128,1779733593007,-9.56,-1.64,-0.2,0.1875,0.0,0.0625,-0.5647583,0.50823975,-0.50335693,-0.41156006
1c,1,None,3618150,1779733593009,-9.61,-1.64,-0.17,0.0,0.3125,0.25,-0.5647583,0.50823975,-0.50335693,-0.41156006
1c,4,None,29621075,1779733593009,3.7632117,-1.7660031,-4.5415773,-11.54496,12.741112,-2.646272,-136.85628,-67.033844,239.3008,0.0
1c,2,None,660122,1779733593014,-8.277425,0.85935855,4.584648,-5.393362,-0.47375977,3.777619,8.969817,58.101994,203.15784,0.0
1c,1,None,3618178,1779733593037,-9.6,-1.61,-0.24,-0.125,-0.0625,0.25,-0.5647583,0.50823975,-0.50335693,-0.41156006
1c,3,None,3418176,1779733593049,17.549164,-4.696814,-0.9834501,3.4757762,-6.3903008,44.699223,-101.66694,-54.651703,335.4474,0.0
1c,1,None,3618195,1779733593072,-9.61,-1.61,-0.3,-0.25,-0.1875,0.0625,-0.5647583,0.5083008,-0.50335693,-0.41149902
1c,4,None,29621135,1779733593072,3.8708887,-1.8449662,-4.5655055,-10.21496,9.871112,-0.9662721,-136.94647,-66.98175,239.3797,0.0
1c,1,None,3618217,1779733593097,-9.62,-1.59,-0.34,0.0625,-0.5,0.0625,-0.5647583,0.5083008,-0.50335693,-0.41149902
1c,1,None,3618235,1779733593099,-9.65,-1.61,-0.23,0.3125,-0.5,-0.0625,-0.5647583,0.5083008,-0.50335693,-0.41149902
1c,3,None,3418236,1779733593116,17.635303,-4.976774,-0.3804588,3.2657766,-5.5503006,45.95922,-101.65174,-54.70401,335.43512,0.0
1c,1,None,3618255,1779733593131,-9.63,-1.61,-0.17,0.375,-1.375,-0.1875,-0.56481934,0.50823975,-0.50323486,-0.41156006
1c,4,None,29621195,1779733593131,3.8780673,-1.9143584,-4.5511484,-1.32496,7.001112,3.653728,-137.02914,-66.92701,239.45435,0.0
1c,2,None,660181,1779733593134,-8.200854,0.8306446,4.520042,-5.393362,0.15624017,3.427619,8.998207,58.157806,203.18417,0.0
1c,1,None,3618277,1779733593157,-9.58,-1.64,-0.16,0.25,-1.3125,-0.0625,-0.56500244,0.5081177,-0.5031128,-0.41168213
1c,1,None,3618301,1779733593158,-9.56,-1.62,-0.18,0.0,-1.125,0.0625,-0.5651245,0.50805664,-0.5029297,-0.4118042
1c,3,None,3418296,1779733593171,17.702305,-4.646565,-0.23688945,-0.024223626,-10.3803005,46.309223,-101.63931,-54.755375,335.42514,0.0
1c,1,None,3618317,1779733593190,-9.61,-1.58,-0.29,0.0,-0.25,0.0,-0.56518555,0.50805664,-0.50286865,-0.4118042
1c,4,None,29621254,1779733593190,3.940281,-1.9382863,-4.5535417,3.2950401,4.971112,7.013728,-137.10835,-66.87087,239.5271,0.0
1c,1,None,3618337,1779733593216,-9.62,-1.58,-0.42,0.125,-0.25,-0.125,-0.5651245,0.50805664,-0.5029297,-0.4118042
1c,1,None,3618359,1779733593218,-9.5,-1.66,-0.34,1.0,-1.0625,-0.0625,-0.56518555,0.50805664,-0.5029297,-0.41174316
1c,2,None,660375,1779733593224,-8.191283,0.90721494,4.476971,-6.6533623,-1.5937599,2.587619,9.077717,58.265278,203.25606,0.0
1c,3,None,3418356,1779733593228,17.752552,-4.768599,-0.09810573,-0.30422366,-13.8803005,48.129223,-101.62561,-54.805054,335.41464,0.0
1c,1,None,3618380,1779733593247,-9.66,-1.62,-0.13,1.25,-2.375,0.0625,-0.5654907,0.5078125,-0.5028076,-0.41174316
1c,4,None,29621315,1779733593250,3.8134613,-1.9670004,-4.6396832,0.6350398,4.7611117,9.533728,-137.18602,-66.81326,239.5973,0.0
1c,1,None,3618409,1779733593276,-9.49,-1.67,-0.04,0.9375,-1.5,-0.125,-0.56585693,0.5075073,-0.5026245,-0.41186523
1c,1,None,3618423,1779733593278,-9.52,-1.7,-0.09,0.6875,-1.375,0.125,-0.56591797,0.50738525,-0.5026245,-0.41186523
1c,2,None,660394,1779733593284,-8.191283,0.85457283,4.4817567,-5.743362,-2.36376,2.587619,9.11042,58.319565,203.28598,0.0
1c,3,None,3418416,1779733593289,17.508486,-5.239985,-1.1437693,-2.1242237,-13.600301,45.74922,-101.6298,-54.860237,335.41827,0.0
1c,1,None,3618448,1779733593307,-9.67,-1.6,-0.11,0.25,-1.125,0.375,-0.5661621,0.5073242,-0.5023804,-0.4119873
1c,4,None,29621375,1779733593310,3.8373892,-2.0052853,-4.7282176,3.78504,5.1111116,8.483728,-137.2624,-66.75573,239.66736,0.0
1c,1,None,3618465,1779733593337,-9.72,-1.56,-0.3,0.125,-0.8125,0.25,-0.56622314,0.5072632,-0.50231934,-0.41210938
1c,2,None,660481,1779733593344,-8.217605,0.8737154,4.4745784,-6.233362,-4.04376,4.8976192,9.147391,58.37268,203.32007,0.0
1c,3,None,3418476,1779733593348,17.183062,-5.4146614,-0.86141616,-0.3742236,-9.400301,39.449223,-101.62491,-54.916687,335.41443,0.0
1c,4,None,29621435,1779733593369,3.5957143,-1.591327,-6.326623,-17.77496,6.5111117,9.463728,-137.36891,-66.70185,239.75797,0.0
1c,1,None,3618483,1779733593397,-9.62,-1.62,-0.34,0.375,-0.625,0.3125,-0.56622314,0.5072632,-0.5022583,-0.41210938
1c,1,None,3618506,1779733593398,-9.71,-1.55,-0.28,1.0625,-0.3125,0.1875,-0.56640625,0.5070801,-0.50231934,-0.4119873
1c,2,None,660541,1779733593405,-8.930665,0.8976437,4.1898327,-8.963362,-5.58376,12.457619,9.173762,58.426983,203.34729,0.0
1c,3,None,3418536,1779733593410,17.355343,-4.4790673,-0.52642095,7.2557764,-15.980301,38.11922,-101.61891,-54.971954,335.4132,0.0
1c,1,None,3618528,1779733593429,-9.74,-1.61,-0.34,1.125,0.4375,0.25,-0.5664673,0.50701904,-0.5024414,-0.41186523
1c,1,None,3618544,1779733593430,-9.61,-1.71,-0.03,2.0,0.5625,0.1875,-0.56658936,0.50683594,-0.5026245,-0.4116211
1c,1,None,3618570,1779733593430,-9.5,-1.81,0.47,1.75,3.3125,0.75,-0.5665283,0.5067749,-0.50305176,-0.41125488
1c,4,None,29621495,1779733593430,5.220441,0.7297113,-7.458428,-54.52496,-15.188889,-36.176273,-137.57959,-66.677475,239.93906,0.0
1c,1,None,3618585,1779733593457,-9.66,-1.8,0.62,1.25,4.6875,0.9375,-0.56604004,0.50701904,-0.50372314,-0.41088867
1c,2,None,660601,1779733593463,-9.607835,1.5939549,3.6801612,-24.923363,7.99624,30.587618,9.240226,58.48015,203.41708,0.0
1c,3,None,3418596,1779733593473,17.967907,-3.823434,-1.4093724,7.6057763,-9.7503,38.81922,-101.62807,-55.030144,335.42322,0.0
1c,1,None,3618611,1779733593489,-9.54,-1.8,0.49,-2.5625,8.1875,1.875,-0.5651245,0.50756836,-0.50439453,-0.4105835
1c,4,None,29621555,1779733593489,2.856332,-1.1510481,-4.8095737,-107.58496,-52.288887,-71.596275,-137.7992,-66.62848,240.11836,0.0
1c,1,None,3618625,1779733593489,-9.55,-1.73,0.24,-3.5,12.6875,2.3125,-0.5637207,0.5084839,-0.50549316,-0.41003418
1c,2,None,660662,1779733593522,-7.7198973,0.25158152,5.441279,-33.603363,-5.23376,28.627619,9.15747,58.4349,203.36156,0.0
1c,3,None,3418656,1779733593527,17.173489,-5.909975,-1.3519448,7.8857765,-6.040301,29.299221,-101.6288,-55.092323,335.42606,0.0
1c,1,None,3618645,1779733593548,-9.49,-1.71,-0.16,-3.5625,14.5625,3.125,-0.5619507,0.5095825,-0.50683594,-0.40942383
1c,1,None,3618670,1779733593548,-9.71,-1.51,-0.48,-3.8125,15.1875,3.1875,-0.5601196,0.51068115,-0.5083008,-0.40875244
1c,1,None,3618687,1779733593548,-9.36,-1.64,-0.75,-3.125,14.625,2.4375,-0.55841064,0.5118408,-0.5097046,-0.40802002
1c,4,None,29621615,1779733593549,1.7604192,-2.5269208,-2.2037897,-112.27496,-44.51889,-52.48627,-137.86273,-66.555046,240.15022,0.0
1c,1,None,3618707,1779733593575,-9.52,-1.65,-0.54,-2.8125,11.9375,2.6875,-0.55688477,0.51275635,-0.51086426,-0.40740967
1c,2,None,660721,1779733593582,-5.346217,0.5435059,5.666204,-2.1733623,-0.89375985,25.197618,9.152058,58.378407,203.36212,0.0
1c,3,None,3418716,1779733593587,18.077976,-4.713564,0.5240282,6.6957765,-8.070301,30.699223,-101.60273,-55.145123,335.40695,0.0
1c,1,None,3618727,1779733593606,-9.71,-1.52,-0.7,-2.5,11.75,3.25,-0.5554199,0.5135498,-0.51208496,-0.4069214
1c,1,None,3618749,1779733593606,-9.35,-1.59,-0.77,-1.0,14.4375,3.6875,-0.553833,0.5144043,-0.51361084,-0.4060669
1c,4,None,29621675,1779733593609,-0.0940183,-5.304988,-0.57188463,-66.35496,-14.5588875,-33.796272,-137.81822,-66.519554,240.09297,0.0
1c,1,None,3618775,1779733593636,-9.36,-1.66,-0.85,-0.1875,13.0625,3.375,-0.5516968,0.51538086,-0.5159302,-0.40472412
1c,2,None,660782,1779733593643,-8.210426,0.45975715,5.209175,-16.313362,-32.53376,21.97762,9.032147,58.342228,203.2679,0.0
1c,3,None,3418776,1779733593647,17.415165,-5.5749803,-1.0719845,10.335776,-4.3603005,25.449223,-101.59699,-55.207653,335.40503,0.0
1c,1,None,3618790,1779733593665,-9.54,-1.62,-0.99,0.5625,12.5625,4.125,-0.55096436,0.515625,-0.51672363,-0.4043579
1c,4,None,29621735,1779733593668,1.4182457,-2.3522446,0.019142581,-71.25496,35.211113,20.873728,-137.68172,-66.498,239.93951,0.0
1c,1,None,3618815,1779733593695,-9.34,-1.56,-1.16,2.375,11.125,5.3125,-0.5492554,0.5157471,-0.5192871,-0.40325928
1c,1,None,3618830,1779733593695,-8.8,-1.75,-1.29,5.375,11.375,6.125,-0.5488281,0.515625,-0.5202637,-0.40283203
1c,2,None,660841,1779733593703,-7.770147,2.254374,4.749753,13.506638,-30.57376,25.337618,9.190804,58.319283,203.40263,0.0
1c,3,None,3418836,1779733593708,17.955942,-3.0170527,-0.20338993,4.5957766,-11.220301,24.749222,-101.59214,-55.26686,335.40356,0.0
1c,1,None,3618855,1779733593725,-9.1,-1.77,-1.17,7.4375,9.8125,8.5,-0.54766846,0.5144043,-0.5234375,-0.40179443
1c,4,None,29621794,1779733593731,2.2892332,4.706582,-0.148355,-14.69496,65.45111,24.863728,-137.72467,-66.54546,239.96552,0.0
1c,1,None,3618878,1779733593755,-9.49,-1.73,-0.58,8.4375,6.375,12.75,-0.54693604,0.5128174,-0.5258179,-0.4017334
1c,1,None,3618896,1779733593755,-9.18,-1.87,-0.7,11.875,9.1875,16.375,-0.54608154,0.5109863,-0.5286865,-0.40148926
1c,2,None,660901,1779733593762,-8.803846,2.1395185,5.721239,-10.293362,-15.94376,28.137619,9.332955,58.284824,203.53127,0.0
1c,3,None,3418896,1779733593767,17.776482,-5.378769,-0.91405827,-1.0042236,-14.230301,18.519222,-101.59354,-55.3304,335.40646,0.0
1c,1,None,3618915,1779733593790,-9.13,-1.83,-1.2,16.375,11.625,22.625,-0.5449829,0.50842285,-0.53253174,-0.40112305
1c,1,None,3618932,1779733593790,-9.57,-1.75,-1.4,19.6875,12.25,25.3125,-0.5444336,0.50683594,-0.5348511,-0.4008789
1c,4,None,29621855,1779733593790,2.0044873,1.1077765,-0.6723831,115.71504,76.16111,-39.046272,-137.8033,-66.61811,240.07161,0.0
1c,1,None,3618958,1779733593815,-10.11,-1.7,-0.38,23.0625,7.25,29.625,-0.54333496,0.50042725,-0.5418701,-0.4008789
1c,2,None,660961,1779733593822,-6.868052,2.323766,5.56092,1.9566379,-7.82376,19.597618,9.434133,58.233913,203.62004,0.0
1c,3,None,3418957,1779733593833,17.752552,-3.0720875,-0.30149564,5.5757766,-11.9203005,17.749222,-101.59052,-55.392353,335.4072,0.0
1c,1,None,3618978,1779733593847,-10.14,-1.98,0.31,21.5625,1.0,31.0625,-0.5429077,0.49554443,-0.54608154,-0.40185547
1c,4,None,29621915,1779733593849,2.449552,-3.859723,-0.9690932,29.54504,88.69112,-9.296272,-137.62611,-66.596924,239.91118,0.0
1c,1,None,3618997,1779733593877,-10.12,-2.59,1.2,18.875,2.75,36.3125,-0.541626,0.49084473,-0.55041504,-0.40338135
1c,1,None,3619016,1779733593879,-4.97,-2.93,1.24,18.5625,22.8125,110.375,-0.5361328,0.4827881,-0.55981445,-0.40753174
1c,2,None,661021,1779733593884,-6.7579827,2.766438,4.7425747,-5.6733623,-5.79376,26.877619,9.575936,58.202145,203.74696,0.0
1c,3,None,3419016,1779733593888,17.31706,-4.2613206,-1.9357935,5.9957767,-4.4303007,7.5292206,-101.61194,-55.462635,335.42712,0.0
1c,1,None,3619035,1779733593907,-11.63,-3.46,0.43,14.0625,35.875,40.0,-0.5289917,0.47821045,-0.5678711,-0.41107178
1c,4,None,29621975,1779733593910,2.6314065,0.62442607,-2.0554345,-8.67496,72.59111,0.43372798,-137.77298,-66.617004,240.03638,0.0
1c,1,None,3619060,1779733593937,-9.69,-2.02,-1.28,14.0625,35.875,40.0,-0.5239258,0.47564697,-0.5750122,-0.41064453
1c,1,None,3619076,1779733593938,-8.66,-2.33,-1.53,12.5,15.1875,54.6875,-0.52001953,0.47045898,-0.5812988,-0.41271973
1c,2,None,661082,1779733593945,-8.473637,3.1780035,4.682754,-5.8833623,-2.71376,6.997619,9.719507,58.203636,203.87193,0.0
1c,3,None,3419076,1779733593949,18.374687,-2.3901331,-0.552742,6.9057765,1.8696995,-0.10077667,-101.6095,-55.532417,335.42673,0.0
1c,1,None,3619096,1779733593966,-9.92,-0.18,-2.6,12.1875,20.625,56.625,-0.5145874,0.46594238,-0.5878296,-0.41540527
1c,4,None,29622035,1779733593969,2.1887348,1.7059821,-1.9118654,26.11504,40.531113,-12.516272,-137.93323,-66.64804,240.18933,0.0
1c,1,None,3619122,1779733593996,-9.46,0.46,-2.6,12.625,14.9375,59.8125,-0.5097656,0.46020508,-0.59472656,-0.41796875
1c,1,None,3619136,1779733593998,-9.5,0.33,-1.93,9.875,9.25,64.8125,-0.50476074,0.4539795,-0.6010132,-0.421875
1c,2,None,661141,1779733594004,-7.291582,2.72576,5.338387,-16.873362,1.2062402,-1.9623809,9.831128,58.168335,203.97147,0.0
1c,3,None,3419136,1779733594008,19.17389,-4.7757773,0.26321048,7.2557764,9.849699,-8.640778,-101.58281,-55.601677,335.40524,0.0
1c,1,None,3619168,1779733594027,-9.7,0.62,-1.3,6.9375,9.4375,69.0,-0.49951172,0.44708252,-0.6074219,-0.42614746
1c,4,None,29622095,1779733594029,2.8874388,-3.9147582,-1.6462619,-23.79496,23.871113,31.51373,-137.7991,-66.58866,240.05316,0.0
1c,1,None,3619176,1779733594056,-9.67,0.31,-1.61,3.625,14.0,73.25,-0.49328613,0.4401245,-0.61431885,-0.43078613
1c,1,None,3619202,1779733594058,-9.34,-0.12,-1.46,-0.1875,12.375,74.5625,-0.48638916,0.4335327,-0.62072754,-0.4360962
1c,3,None,3419196,1779733594073,19.858238,-4.747063,-0.37088752,-10.734223,2.9896994,-23.830776,-101.57769,-55.678772,335.3983,0.0
1c,1,None,3619216,1779733594087,-9.09,-0.3,-1.51,-4.4375,11.8125,76.1875,-0.47924805,0.42669678,-0.6269531,-0.44177246
1c,4,None,29622155,1779733594090,3.0525434,1.8112662,-3.5365918,-10.3549595,-9.028889,44.81373,-137.9699,-66.57423,240.20279,0.0
1c,1,None,3619238,1779733594117,-8.91,-0.11,-1.48,-8.25,10.5,77.0625,-0.47070312,0.42144775,-0.6317749,-0.44903564
1c,1,None,3619264,1779733594118,-8.92,0.51,-0.4,-15.625,8.4375,76.3125,-0.4588623,0.41204834,-0.6390991,-0.45965576
1c,3,None,3419256,1779733594130,25.510084,1.1249232,1.3567305,-90.04423,-17.240301,31.329222,-101.60647,-55.7312,335.3982,0.0
1c,1,None,3619281,1779733594150,-8.4,0.59,-0.32,-24.0625,10.5625,76.5625,-0.45446777,0.40924072,-0.6411743,-0.46350098
1c,4,None,29622215,1779733594150,3.191327,-2.5005999,-3.562913,-98.20496,-33.598885,54.543728,-138.02293,-66.4849,240.2175,0.0
1c,2,None,661202,1779733594154,-8.011822,2.2304459,5.582455,-19.603363,7.1562405,-8.962381,9.935641,58.133484,204.06467,0.0
1c,1,None,3619300,1779733594177,-8.91,1.74,-0.56,-28.375,23.625,82.0625,-0.44293213,0.4055786,-0.6452637,-0.472229
1c,1,None,3619320,1779733594179,-8.84,2.37,-2.09,-28.3125,33.6875,88.8125,-0.43041992,0.4006958,-0.65130615,-0.47955322
1c,3,None,3419316,1779733594188,22.607592,0.7994994,0.62931234,17.195776,-13.6703005,164.60922,-101.5864,-55.73971,335.3827,0.0
1c,1,None,3619341,1779733594206,-8.57,3.36,-3.82,-28.1875,31.9375,90.125,-0.41723633,0.39587402,-0.6571655,-0.48718262
1c,4,None,29622275,1779733594209,3.9163523,-0.43798694,-1.2897314,-174.08496,-62.018883,68.61372,-138.22618,-66.498924,240.34682,0.0
1c,2,None,661395,1779733594214,-8.308532,2.5606554,3.9696927,-50.473362,3.2362404,-18.832382,10.093868,58.11382,204.21375,0.0
1c,1,None,3619362,1779733594237,-8.14,3.82,-3.92,-31.5,14.75,90.5625,-0.4055786,0.38952637,-0.6619873,-0.49554443
1c,1,None,3619379,1779733594238,-8.16,3.94,-3.6,-36.0625,-2.75,91.3125,-0.39544678,0.3817749,-0.66503906,-0.5055542
1c,3,None,3419376,1779733594249,21.588247,-1.1697937,1.0648061,106.935776,-29.910301,111.05922,-101.53975,-55.764294,335.37634,0.0
1c,1,None,3619409,1779733594266,-8.55,4.39,-2.26,-40.8125,-13.625,90.125,-0.38604736,0.37353516,-0.6665039,-0.51690674
1c,4,None,29622334,1779733594269,3.9689944,-0.6700906,0.5240282,-190.04497,-81.96889,50.76373,-138.24757,-66.50784,240.3079,0.0
1c,2,None,661414,1779733594274,-7.9902864,1.2733169,4.4745784,-28.423363,6.66624,-16.52238,10.181082,58.151596,204.29346,0.0
1c,1,None,3619425,1779733594297,-8.37,4.76,0.61,-53.0625,-8.9375,89.3125,-0.3718872,0.3614502,-0.66693115,-0.53497314
1c,3,None,3419436,1779733594309,22.131418,-3.9239323,0.17228323,80.615776,-36.7703,72.48922,-101.51037,-55.804047,335.37958,0.0
1c,1,None,3619446,1779733594327,-8.67,4.9,1.86,-59.0625,6.625,93.375,-0.35913086,0.35546875,-0.66711426,-0.5473633
1c,1,None,3619465,1779733594330,-8.67,5.11,1.2,-63.5,17.0625,98.0625,-0.34466553,0.34973145,-0.6679077,-0.55926514
1c,4,None,29622395,1779733594330,8.62782,5.256932,2.5794628,-182.06496,-75.738884,21.153728,-138.37004,-66.53024,240.36674,0.0
1c,2,None,661471,1779733594333,-7.9256797,0.9694283,4.7234316,-6.303362,18.00624,-15.402382,10.269895,58.196465,204.36856,0.0
1c,1,None,3619481,1779733594356,-8.01,5.5,-1.6,-63.3125,20.25,101.75,-0.33685303,0.34674072,-0.66845703,-0.56518555
1c,1,None,3619505,1779733594358,-7.77,6.95,-2.89,-55.8125,24.4375,106.5,-0.31066895,0.33898926,-0.67041016,-0.5823364
1c,3,None,3419497,1779733594368,20.164518,-2.4643106,-0.33978084,63.605778,-21.650301,86.55922,-101.48808,-55.841873,335.38028,0.0
1c,1,None,3619529,1779733594391,-6.44,9.51,-3.52,-47.0625,18.125,107.4375,-0.2958374,0.3303833,-0.6727905,-0.59210205
1c,4,None,29622455,1779733594392,5.8018966,10.700602,6.3601227,-124.17496,-72.58889,-97.42628,-138.53731,-66.5704,240.49725,0.0
1c,2,None,661532,1779733594394,-7.746218,0.5363275,5.3192444,-1.893362,16.53624,-23.452381,10.179188,58.159405,204.28835,0.0
1c,1,None,3619544,1779733594416,-6.17,11.43,-3.66,-37.625,1.5,107.5625,-0.28833008,0.32641602,-0.6734009,-0.5973511
1c,3,None,3419556,1779733594432,17.769302,-2.8591263,-0.22971097,57.095776,1.5196991,101.74922,-101.45141,-55.875927,335.36215,0.0
1c,1,None,3619583,1779733594450,-7.57,13.1,-1.84,-15.3125,2.8125,96.75,-0.26586914,0.3045044,-0.67889404,-0.6129761
1c,4,None,29622515,1779733594450,3.1219356,7.003691,3.8883367,11.34504,-52.91889,-179.04628,-138.69931,-66.63324,240.67305,0.0
1c,1,None,3619568,1779733594450,-6.08,13.19,-3.15,-21.3125,-5.8125,101.5,-0.27142334,0.3095703,-0.677124,-0.6099243
1c,1,None,3619606,1779733594477,-6.18,11.66,-0.26,-9.5625,3.25,72.4375,-0.25030518,0.29437256,-0.6828003,-0.62005615
1c,2,None,661591,1779733594483,-8.777525,0.6751112,4.883751,-1.1233621,27.03624,-32.76238,10.115007,58.227802,204.2291,0.0
1c,3,None,3419616,1779733594493,15.29991,-3.2467637,-0.27038896,45.615776,16.1497,69.47922,-101.41228,-55.922245,335.33713,0.0
1c,1,None,3619630,1779733594507,-5.79,11.62,0.23,-12.75,-9.3125,63.875,-0.24334717,0.28656006,-0.6847534,-0.6243286
1c,1,None,3619650,1779733594509,-7.33,9.35,1.35,-17.1875,-23.9375,38.125,-0.23925781,0.28076172,-0.6838989,-0.62945557
1c,4,None,29622575,1779733594511,1.7125628,0.19132571,2.8666015,20.585041,-52.848885,-227.76628,-138.81343,-66.70053,240.81297,0.0
1c,1,None,3619666,1779733594536,-5.69,8.01,1.12,-21.6875,-30.25,27.1875,-0.23852539,0.27508545,-0.68182373,-0.63446045
1c,2,None,661681,1779733594544,-9.284803,0.51957774,4.400401,-0.84336233,33.26624,-52.64238,10.062756,58.301403,204.17645,0.0
1c,3,None,3419676,1779733594549,14.060428,-3.3975112,-0.35653055,58.145775,18.669699,29.719221,-101.37153,-55.982784,335.31546,0.0
1c,1,None,3619687,1779733594567,-2.64,6.74,-0.26,-13.75,-18.6875,28.75,-0.23669434,0.27130127,-0.67993164,-0.63879395
1c,4,None,29622635,1779733594569,0.9061816,-3.2734816,4.28076,30.24504,-27.858889,-183.94627,-138.84755,-66.74378,240.87567,0.0
1c,1,None,3619719,1779733594597,0.35,7.56,-0.76,-11.625,-36.8125,37.0625,-0.23602295,0.26452637,-0.6790161,-0.64282227
1c,1,None,3619736,1779733594600,2.51,7.64,0.38,-10.6875,-72.1875,46.375,-0.2387085,0.2479248,-0.6765137,-0.651062
1c,2,None,661742,1779733594605,-8.444922,-0.1336629,4.3094735,-12.043362,50.69624,-41.30238,9.944588,58.369457,204.07362,0.0
1c,3,None,3419736,1779733594608,13.522042,-4.2445707,-0.42831525,30.775776,8.099699,26.009222,-101.341255,-56.043682,335.2967,0.0
1c,1,None,3619755,1779733594627,1.94,6.57,0.07,-8.125,-93.0,58.8125,-0.24243164,0.23223877,-0.67401123,-0.65802
1c,4,None,29622695,1779733594630,0.860718,-4.5656056,4.4051867,34.09504,32.90111,-121.43628,-138.80313,-66.78379,240.85541,0.0
1c,1,None,3619776,1779733594657,0.86,6.38,-0.5,-0.5625,-94.375,78.375,-0.24487305,0.2133789,-0.67266846,-0.66485596
1c,1,None,3619795,1779733594658,1.47,6.21,-0.6,7.875,-92.375,98.125,-0.24359131,0.19360352,-0.6722412,-0.6717529
1c,3,None,3419796,1779733594668,14.632312,-4.4599247,-0.30388847,-23.544224,-8.7003,62.47922,-101.33175,-56.089973,335.28128,0.0
1c,1,None,3619818,1779733594688,1.45,6.45,-0.3,10.25,-95.0625,109.4375,-0.2420044,0.16888428,-0.67297363,-0.67822266
1c,4,None,29622755,1779733594690,0.9396811,-3.103591,4.8454657,61.255035,53.62111,-67.60628,-138.71567,-66.82377,240.79683,0.0
1c,1,None,3619835,1779733594718,0.77,6.27,0.48,14.3125,-118.8125,141.25,-0.23925781,0.14001465,-0.6734009,-0.68530273
1c,1,None,3619861,1779733594719,0.11,6.54,0.86,15.4375,-143.0625,154.0625,-0.2374878,0.10626221,-0.67285156,-0.6925049
1c,3,None,3419856,1779733594728,15.89333,-4.1033945,-0.062213387,-32.504223,-31.7303,74.519226,-101.335335,-56.12968,335.278,0.0
1c,1,None,3619879,1779733594745,-0.89,8.7,1.01,18.0625,-176.4375,153.4375,-0.23852539,0.06854248,-0.6705322,-0.6991577
1c,2,None,661801,1779733594752,-8.751204,-0.92090154,3.1609187,10.076637,56.85624,-29.122381,9.863868,58.44562,203.99841,0.0
1c,1,None,3619896,1779733594775,-4.55,9.14,2.22,11.375,-244.0,151.3125,-0.24603271,0.023742676,-0.66412354,-0.70562744
1c,1,None,3619916,1779733594776,-9.51,8.89,5.49,9.375,-279.5625,132.125,-0.26019287,-0.024780273,-0.6534424,-0.7103882
1c,4,None,29622815,1779733594778,-0.39790672,-2.2876387,3.8907297,91.21504,50.961113,-76.14628,-138.63171,-66.86217,240.75217,0.0
1c,3,None,3419916,1779733594792,16.15654,-3.8904328,-0.18424734,-3.8042235,-48.0403,69.82922,-101.341705,-56.170822,335.2887,0.0
1c,1,None,3619940,1779733594810,-13.21,9.79,6.52,20.75,-238.25,113.1875,-0.27368164,-0.06890869,-0.6430664,-0.71191406
1c,2,None,661965,1779733594812,-9.428372,-1.9211016,2.0793629,7.2766376,27.52624,-41.58238,9.662331,58.583046,203.81128,0.0
1c,1,None,3619960,1779733594835,-14.94,8.79,7.49,30.8125,-151.6875,88.625,-0.28045654,-0.101379395,-0.63720703,-0.71069336
1c,1,None,3619982,1779733594835,-17.4,8.35,7.55,14.8125,-95.4375,58.9375,-0.28356934,-0.12237549,-0.63323975,-0.70965576
1c,4,None,29622875,1779733594839,-2.364807,-6.250153,0.715454,86.17504,22.68111,-42.616272,-138.53384,-66.85161,240.69218,0.0
1c,3,None,3419976,1779733594847,15.850258,-4.555638,-0.51206404,14.045776,-45.100304,70.38922,-101.34282,-56.213326,335.29962,0.0
1c,1,None,3620003,1779733594867,-26.9,11.5,5.52,-11.3125,-55.5,7.0625,-0.288208,-0.13238525,-0.62890625,-0.70983887
1c,1,None,3620028,1779733594895,-8.76,5.91,0.18,-7.5,-18.6875,-18.5625,-0.29400635,-0.13330078,-0.62646484,-0.70947266
1c,4,None,29622965,1779733594898,-2.649553,5.2330027,0.9523434,28.215038,17.081112,-47.516273,-138.59105,-66.88281,240.75717,0.0
1c,2,None,662011,1779733594902,-8.571742,-3.2012615,2.184647,15.116638,18.14624,-29.892382,9.547808,58.63874,203.70421,0.0
1c,3,None,3420037,1779733594908,15.132412,-5.529516,-0.7920243,-22.564224,-33.6203,82.35922,-101.34901,-56.2534,335.30148,0.0
1c,1,None,3620045,1779733594926,10.04,3.31,1.04,-5.625,4.6875,22.75,-0.2886963,-0.13641357,-0.62438965,-0.7128906
1c,1,None,3620069,1779733594926,-9.31,15.66,14.01,-31.5625,6.875,60.25,-0.2850952,-0.13842773,-0.62194824,-0.71606445
1c,1,None,3620084,1779733594955,5.48,12.16,-1.0,-23.1875,48.1875,16.875,-0.27947998,-0.13519287,-0.61950684,-0.7210083
1c,4,None,29623025,1779733594958,-3.068297,-5.6782684,-1.820938,52.22504,-1.538888,-14.476273,-138.52467,-66.84172,240.71458,0.0
1c,2,None,662072,1779733594963,-9.040735,-3.100763,1.6151553,7.626638,20.80624,-14.492382,9.454635,58.699677,203.62038,0.0
1c,3,None,3420096,1779733594968,14.457636,-6.5656085,-1.0648061,-70.23423,-18.0803,103.49922,-101.359474,-56.287834,335.28928,0.0
1c,1,None,3620106,1779733594987,-2.74,12.12,-2.75,-13.75,57.6875,36.4375,-0.26519775,-0.12957764,-0.61938477,-0.727478
1c,1,None,3620129,1779733594987,-0.13,7.22,1.63,-19.0,12.9375,28.3125,-0.26257324,-0.13189697,-0.61590576,-0.73101807
1c,1,None,3620146,1779733595017,-2.49,9.71,4.16,-18.375,-11.0,27.75,-0.25976562,-0.13470459,-0.6119995,-0.7347412
1c,2,None,662162,1779733595023,-10.306538,-0.6098346,3.6777685,51.516636,14.92624,-32.27238,9.398845,58.763927,203.55202,0.0
1c,3,None,3420156,1779733595028,17.240488,-9.030215,-1.9453648,-77.44423,0.3996992,118.269226,-101.38331,-56.32201,335.282,0.0
1c,1,None,3620166,1779733595046,-1.02,9.67,2.99,-5.375,18.0625,28.8125,-0.25500488,-0.13574219,-0.6109009,-0.7371216
1c,1,None,3620187,1779733595046,-0.85,10.01,1.69,-2.3125,4.125,27.625,-0.24914551,-0.1361084,-0.61065674,-0.7392578
1c,1,None,3620213,1779733595075,-0.93,10.25,1.62,-2.3125,-9.0625,25.875,-0.24664307,-0.1395874,-0.60943604,-0.7404785
1c,4,None,29623084,1779733595079,-3.7502515,-2.1775684,-0.7752746,14.215039,2.2411118,8.6937275,-138.48747,-66.81008,240.68382,0.0
1c,2,None,662221,1779733595082,-9.847116,-0.6098346,2.723032,177.16664,16.18624,-52.57238,9.390938,58.831753,203.48349,0.0
1c,3,None,3420216,1779733595094,19.475386,-12.167207,-2.9742787,-43.354225,-10.9403,161.87923,-101.47793,-56.303474,335.34406,0.0
1c,1,None,3620230,1779733595107,-0.82,10.57,1.83,-0.0625,-4.875,23.875,-0.24438477,-0.1428833,-0.6084595,-0.74139404
1c,1,None,3620247,1779733595107,-0.83,10.01,2.02,2.25,3.25,21.5625,-0.24145508,-0.14508057,-0.60821533,-0.74212646
1c,1,None,3620276,1779733595135,-0.27,9.61,1.4,1.125,3.5,17.8125,-0.23858643,-0.14660645,-0.60809326,-0.74279785
1c,4,None,29623249,1779733595139,0.09740758,-4.522535,-1.1940185,-32.68496,-65.028885,15.763728,-138.38196,-66.69834,240.6014,0.0
1c,2,None,662282,1779733595143,-10.5529995,2.9339359,2.024328,230.01665,6.3862405,13.857618,9.553628,58.882877,203.55672,0.0
