id,session_id,session_name,device_id,body_location,device_ts_ms,wall_clock_ms,accel_x,accel_y,accel_z,gyro_x,gyro_y,gyro_z,quat_w,quat_x,quat_y,quat_z
152756,3021447,1779111110943,-1.4,-9.54,2.16,-0.25,0.8125,0.125,-0.7175293,0.5246582,-0.33392334,0.3137207,2026-05-18T18:10:59.145984,2,Device1,1
152759,3021487,1779111110945,-1.46,-9.44,2.25,-0.125,1.625,0.9375,-0.7173462,0.52441406,-0.33441162,0.3139038,2026-05-18T18:10:59.145984,2,Device1,1
152760,3021462,1779111110945,-1.48,-9.46,2.22,-0.125,1.8125,0.5625,-0.7174072,0.52459717,-0.33410645,0.31384277,2026-05-18T18:10:59.145984,2,Device1,1
152762,3021506,1779111110961,-1.35,-9.4,2.29,-0.375,1.4375,0.9375,-0.7173462,0.524292,-0.33465576,0.31396484,2026-05-18T18:10:59.145984,2,Device1,1
152765,3021528,1779111111023,-1.33,-9.45,2.33,-0.4375,1.625,0.5,-0.71728516,0.5241699,-0.33477783,0.3140869,2026-05-18T18:10:59.145984,2,Device1,1
152766,3021543,1779111111023,-1.44,-9.48,2.29,-0.1875,1.8125,-0.0625,-0.7171631,0.5241089,-0.33496094,0.31427002,2026-05-18T18:10:59.145984,2,Device1,1
152769,3021567,1779111111045,-1.49,-9.42,2.33,0.3125,1.3125,-0.1875,-0.71710205,0.5239868,-0.33514404,0.31445312,2026-05-18T18:10:59.145984,2,Device1,1
152771,3021594,1779111111062,-1.49,-9.39,2.26,0.25,0.0,-0.3125,-0.71710205,0.5239868,-0.33514404,0.31445312,2026-05-18T18:10:59.145984,2,Device1,1
152772,3021608,1779111111066,-1.44,-9.38,2.26,0.4375,-0.4375,-0.3125,-0.71710205,0.5239258,-0.33514404,0.31445312,2026-05-18T18:10:59.145984,2,Device1,1
152776,3021634,1779111111117,-1.43,-9.36,2.19,0.5,-0.4375,-0.0625,-0.71710205,0.5239868,-0.335083,0.31445312,2026-05-18T18:10:59.145984,2,Device1,1
152777,3021656,1779111111118,-1.45,-9.35,2.18,0.375,-0.125,-0.125,-0.71710205,0.5239868,-0.335083,0.31445312,2026-05-18T18:10:59.145984,2,Device1,1
152779,3021692,1779111111154,-1.51,-9.39,2.12,-0.25,-1.625,-0.3125,-0.7172241,0.5241089,-0.33483887,0.31433105,2026-05-18T18:10:59.145984,2,Device1,1
152781,3021674,1779111111154,-1.58,-9.36,2.13,-0.0625,-0.875,-0.25,-0.7171631,0.5239868,-0.335083,0.3143921,2026-05-18T18:10:59.145984,2,Device1,1
152783,3021715,1779111111178,-1.16,-9.63,2.2,-0.25,-0.625,-1.3125,-0.71710205,0.52423096,-0.3347168,0.3145752,2026-05-18T18:10:59.145984,2,Device1,1
152785,3021737,1779111111219,-1.29,-9.63,2.25,0.125,4.8125,-1.125,-0.71673584,0.5239258,-0.33538818,0.31518555,2026-05-18T18:10:59.145984,2,Device1,1
152787,3021753,1779111111219,-1.67,-9.42,2.13,0.125,7.25,0.75,-0.7163086,0.52349854,-0.33636475,0.3157959,2026-05-18T18:10:59.145984,2,Device1,1
152789,3021778,1779111111235,-1.61,-9.32,2.18,0.0,4.25,0.9375,-0.71606445,0.52319336,-0.33703613,0.31610107,2026-05-18T18:10:59.145984,2,Device1,1
152791,3021803,1779111111268,-1.3,-9.33,2.19,-0.0625,1.9375,0.25,-0.7159424,0.5230713,-0.3373413,0.31628418,2026-05-18T18:10:59.145984,2,Device1,1
152792,3021812,1779111111268,-1.23,-9.32,2.16,-0.1875,3.5625,-0.6875,-0.7157593,0.5228882,-0.33770752,0.31658936,2026-05-18T18:10:59.145984,2,Device1,1
152795,3021842,1779111111297,-1.35,-9.39,2.15,-0.625,6.6875,-1.3125,-0.71533203,0.5227051,-0.33831787,0.31726074,2026-05-18T18:10:59.145984,2,Device1,1
152797,3021853,1779111111335,-1.6,-9.46,2.17,-0.9375,8.4375,-0.875,-0.7147217,0.5223999,-0.3392334,0.3180542,2026-05-18T18:10:59.145984,2,Device1,1
152800,3021877,1779111111353,-1.71,-9.46,2.14,-0.875,7.1875,-0.4375,-0.7142334,0.5220947,-0.34020996,0.31866455,2026-05-18T18:10:59.145984,2,Device1,1
152801,3021901,1779111111365,-1.58,-9.46,2.17,-0.6875,4.875,0.0,-0.71380615,0.5219116,-0.34094238,0.3190918,2026-05-18T18:10:59.145984,2,Device1,1
152803,3021917,1779111111390,-1.44,-9.41,2.18,-0.5625,4.125,0.1875,-0.713562,0.5217285,-0.34143066,0.319458,2026-05-18T18:10:59.145984,2,Device1,1
152806,3021935,1779111111415,-1.41,-9.44,2.16,-0.5625,5.375,-0.0625,-0.71325684,0.5214844,-0.34204102,0.31988525,2026-05-18T18:10:59.145984,2,Device1,1
152807,3021958,1779111111415,-1.47,-9.41,2.16,-0.625,6.5625,-0.0625,-0.7128296,0.5211792,-0.34283447,0.32043457,2026-05-18T18:10:59.145984,2,Device1,1
152809,3021986,1779111111437,-1.55,-9.42,2.15,-0.6875,6.3125,-0.125,-0.7121582,0.520813,-0.34405518,0.32122803,2026-05-18T18:10:59.145984,2,Device1,1
152812,3022005,1779111111468,-1.57,-9.4,2.14,-0.625,5.125,-0.5625,-0.711792,0.52056885,-0.34472656,0.32165527,2026-05-18T18:10:59.145984,2,Device1,1
152813,3022020,1779111111469,-1.51,-9.39,2.16,-0.375,4.8125,-0.625,-0.7116699,0.5205078,-0.34503174,0.3218994,2026-05-18T18:10:59.145984,2,Device1,1
152815,3022047,1779111111498,-1.56,-9.43,2.15,-0.1875,5.25,-0.6875,-0.7111206,0.52008057,-0.34588623,0.3227539,2026-05-18T18:10:59.145984,2,Device1,1
152818,3022065,1779111111527,-1.63,-9.4,2.13,-0.6875,5.9375,-0.625,-0.71069336,0.5198364,-0.34655762,0.32330322,2026-05-18T18:10:59.145984,2,Device1,1
152819,3022082,1779111111528,-1.67,-9.42,2.16,-0.6875,5.3125,-1.0,-0.71032715,0.5196533,-0.347229,0.3237915,2026-05-18T18:10:59.145984,2,Device1,1
152821,3022104,1779111111558,-1.68,-9.37,2.14,-0.6875,3.9375,-0.875,-0.70996094,0.51953125,-0.34777832,0.32421875,2026-05-18T18:10:59.145984,2,Device1,1
152823,3022126,1779111111587,-1.65,-9.42,2.15,-0.75,2.4375,-1.1875,-0.70965576,0.5194702,-0.3480835,0.32452393,2026-05-18T18:10:59.145984,2,Device1,1
152825,3022146,1779111111590,-1.58,-9.49,2.16,-1.1875,1.75,-1.5625,-0.7094116,0.5195923,-0.3482666,0.3248291,2026-05-18T18:10:59.145984,2,Device1,1
152827,3022164,1779111111617,-1.59,-9.52,2.21,-1.25,1.75,-1.5625,-0.7092285,0.5196533,-0.34832764,0.32495117,2026-05-18T18:10:59.145984,2,Device1,1
152830,3022183,1779111111649,-1.59,-9.53,2.2,-1.4375,0.8125,-1.6875,-0.70880127,0.5199585,-0.3484497,0.32525635,2026-05-18T18:10:59.145984,2,Device1,1
152831,3022207,1779111111650,-1.63,-9.42,2.21,-1.25,-0.5,-1.375,-0.7086792,0.5201416,-0.34838867,0.32537842,2026-05-18T18:10:59.145984,2,Device1,1
152833,3022223,1779111111678,-1.59,-9.39,2.23,-1.0625,-1.5625,-1.0625,-0.70861816,0.52038574,-0.34820557,0.32531738,2026-05-18T18:10:59.145984,2,Device1,1
152836,3022247,1779111111711,-1.5,-9.39,2.18,-0.875,-2.875,-1.0,-0.7086792,0.5206909,-0.34783936,0.32513428,2026-05-18T18:10:59.145984,2,Device1,1
152837,3022262,1779111111712,-1.46,-9.41,2.17,-0.8125,-3.6875,-1.0625,-0.70874023,0.5210571,-0.34735107,0.32489014,2026-05-18T18:10:59.145984,2,Device1,1
152839,3022286,1779111111743,-1.42,-9.42,2.14,-0.875,-4.0,-1.1875,-0.7088623,0.52142334,-0.34680176,0.324646,2026-05-18T18:10:59.145984,2,Device1,1
152842,3022306,1779111111779,-1.44,-9.42,2.11,-0.875,-4.125,-1.3125,-0.7089844,0.52178955,-0.3461914,0.32434082,2026-05-18T18:10:59.145984,2,Device1,1
152843,3022325,1779111111779,-1.46,-9.4,2.05,-1.0625,-4.125,-1.1875,-0.7090454,0.5222168,-0.3456421,0.32409668,2026-05-18T18:10:59.145984,2,Device1,1
152845,3022348,1779111111802,-1.49,-9.45,2.06,-1.0625,-3.5625,-1.0,-0.70910645,0.52264404,-0.3451538,0.32385254,2026-05-18T18:10:59.145984,2,Device1,1
152848,3022364,1779111111834,-1.54,-9.5,2.08,-0.875,-3.4375,-0.625,-0.7092285,0.52301025,-0.34472656,0.32354736,2026-05-18T18:10:59.145984,2,Device1,1
152849,3022405,1779111111861,-1.4,-9.52,2.11,-0.8125,-3.0,0.25,-0.7094116,0.5235596,-0.34405518,0.32287598,2026-05-18T18:10:59.145984,2,Device1,1
152852,3022396,1779111111861,-1.46,-9.54,2.09,-0.875,-3.125,-0.25,-0.70928955,0.5232544,-0.34436035,0.32318115,2026-05-18T18:10:59.145984,2,Device1,1
152854,3022427,1779111111888,-1.39,-9.52,2.16,-0.625,-3.0,0.375,-0.7095337,0.5238037,-0.34375,0.32263184,2026-05-18T18:10:59.145984,2,Device1,1
152856,3022450,1779111111920,-1.38,-9.47,2.16,-0.625,-3.1875,0.25,-0.70965576,0.52404785,-0.3433838,0.32232666,2026-05-18T18:10:59.145984,2,Device1,1
152857,3022471,1779111111921,-1.38,-9.46,2.2,-0.5625,-3.3125,-0.0625,-0.70983887,0.52423096,-0.34295654,0.32202148,2026-05-18T18:10:59.145984,2,Device1,1
152860,3022495,1779111111954,-1.4,-9.45,2.17,0.0,-3.375,0.0,-0.710022,0.52441406,-0.3425293,0.3217163,2026-05-18T18:10:59.145984,2,Device1,1
152862,3022511,1779111111980,-1.41,-9.44,2.15,0.3125,-3.875,0.1875,-0.7102661,0.5246582,-0.34210205,0.32141113,2026-05-18T18:10:59.145984,2,Device1,1
152863,3022532,1779111111980,-1.34,-9.41,2.14,0.375,-4.125,0.3125,-0.7106323,0.5249634,-0.3413086,0.32086182,2026-05-18T18:10:59.145984,2,Device1,1
152866,3022551,1779111112013,-1.34,-9.44,2.08,0.3125,-4.25,0.375,-0.7107544,0.52508545,-0.34100342,0.3206787,2026-05-18T18:10:59.145984,2,Device1,1
152867,3022567,1779111112013,-1.33,-9.42,2.07,0.375,-4.0,0.3125,-0.7109375,0.5253296,-0.34051514,0.3203125,2026-05-18T18:10:59.145984,2,Device1,1
152868,3022591,1779111112043,-1.31,-9.44,2.04,0.125,-3.75,-0.1875,-0.71118164,0.52557373,-0.34002686,0.32000732,2026-05-18T18:10:59.145984,2,Device1,1
152872,3022608,1779111112075,-1.33,-9.47,2.11,-0.0625,-3.5,-0.375,-0.71136475,0.5258179,-0.33953857,0.31970215,2026-05-18T18:10:59.145984,2,Device1,1
152873,3022630,1779111112075,-1.34,-9.47,2.1,0.0625,-3.0,-0.4375,-0.7114868,0.526001,-0.33917236,0.319458,2026-05-18T18:10:59.145984,2,Device1,1
152875,3022655,1779111112101,-1.33,-9.47,2.11,0.125,-2.6875,-0.0625,-0.7116699,0.5261841,-0.33880615,0.31921387,2026-05-18T18:10:59.145984,2,Device1,1
152879,3022671,1779111112160,-1.25,-9.43,2.14,0.125,-2.75,0.3125,-0.711792,0.5263672,-0.3383789,0.31903076,2026-05-18T18:10:59.145984,2,Device1,1
152880,3022693,1779111112161,-1.22,-9.44,2.13,-0.125,-2.0625,0.3125,-0.7119751,0.5266113,-0.33789062,0.31878662,2026-05-18T18:10:59.145984,2,Device1,1
152883,3022720,1779111112188,-1.3,-9.48,2.15,-0.25,-1.0625,0.0,-0.71203613,0.52667236,-0.33764648,0.3187256,2026-05-18T18:10:59.145984,2,Device1,1
152884,3022736,1779111112188,-1.38,-9.5,2.16,-0.125,-0.5,-0.1875,-0.71203613,0.52667236,-0.33764648,0.3187256,2026-05-18T18:10:59.145984,2,Device1,1
152885,3022756,1779111112222,-1.43,-9.49,2.16,-0.0625,-0.5625,-0.25,-0.71203613,0.52667236,-0.33764648,0.3187256,2026-05-18T18:10:59.145984,2,Device1,1
152888,3022774,1779111112223,-1.41,-9.43,2.19,0.1875,-0.8125,0.125,-0.71209717,0.5267334,-0.3375244,0.31860352,2026-05-18T18:10:59.145984,2,Device1,1
152890,3022805,1779111112255,-1.4,-9.42,2.17,0.25,-1.3125,0.0625,-0.7121582,0.52679443,-0.33740234,0.31854248,2026-05-18T18:10:59.145984,2,Device1,1
152891,3022818,1779111112279,-1.37,-9.45,2.17,0.3125,-1.4375,0.0625,-0.7122803,0.52685547,-0.33721924,0.3184204,2026-05-18T18:10:59.145984,2,Device1,1
152895,3022842,1779111112308,-1.35,-9.44,2.17,0.1875,-1.375,0.125,-0.71240234,0.52697754,-0.3369751,0.3182373,2026-05-18T18:10:59.145984,2,Device1,1
152896,3022858,1779111112309,-1.33,-9.43,2.14,0.5,-1.0625,0.0,-0.71240234,0.52697754,-0.33691406,0.31817627,2026-05-18T18:10:59.145984,2,Device1,1
152898,3022885,1779111112338,-1.36,-9.43,2.14,0.375,-0.6875,0.0,-0.7124634,0.5270386,-0.336792,0.31817627,2026-05-18T18:10:59.145984,2,Device1,1
152901,3022903,1779111112368,-1.36,-9.49,2.17,0.0,-1.1875,-0.1875,-0.7125244,0.5270996,-0.3366089,0.3180542,2026-05-18T18:10:59.145984,2,Device1,1
152902,3022924,1779111112368,-1.4,-9.53,2.15,0.0,-0.875,-0.3125,-0.71258545,0.52716064,-0.33648682,0.31793213,2026-05-18T18:10:59.835989,2,Device1,1
152904,3022949,1779111112398,-1.35,-9.47,2.18,0.25,-1.1875,-0.5,-0.7126465,0.5272217,-0.33636475,0.3178711,2026-05-18T18:10:59.835989,2,Device1,1
152907,3022966,1779111112431,-1.33,-9.41,2.19,0.375,-1.8125,-0.375,-0.7127075,0.5272827,-0.33618164,0.317688,2026-05-18T18:10:59.835989,2,Device1,1
152909,3022993,1779111112461,-1.28,-9.38,2.17,0.5,-2.1875,-0.1875,-0.7128296,0.5274048,-0.3359375,0.31750488,2026-05-18T18:10:59.835989,2,Device1,1
152910,3023012,1779111112461,-1.24,-9.44,2.16,0.5,-1.875,0.0,-0.71295166,0.52752686,-0.33569336,0.31732178,2026-05-18T18:10:59.835989,2,Device1,1
152913,3023031,1779111112489,-1.27,-9.45,2.14,0.5625,-1.75,0.0,-0.71307373,0.5276489,-0.33551025,0.3171997,2026-05-18T18:10:59.835989,2,Device1,1
152916,3023052,1779111112518,-1.3,-9.47,2.14,0.5625,-1.1875,-0.3125,-0.7131958,0.5276489,-0.3352661,0.31707764,2026-05-18T18:10:59.835989,2,Device1,1
152915,3023072,1779111112519,-1.33,-9.49,2.14,0.5625,-0.4375,-0.1875,-0.7131958,0.5276489,-0.3352661,0.31707764,2026-05-18T18:10:59.835989,2,Device1,1
152919,3023094,1779111112547,-1.31,-9.43,2.16,0.5625,0.0625,0.0625,-0.71325684,0.5275879,-0.33520508,0.31707764,2026-05-18T18:10:59.835989,2,Device1,1
152921,3023112,1779111112578,-1.32,-9.48,2.2,0.25,-0.0625,0.375,-0.71325684,0.5275879,-0.3352661,0.3170166,2026-05-18T18:10:59.835989,2,Device1,1
152922,3023135,1779111112579,-1.26,-9.47,2.31,0.375,0.0625,1.0,-0.7133179,0.52752686,-0.33532715,0.31695557,2026-05-18T18:10:59.835989,2,Device1,1
152925,3023153,1779111112609,-1.26,-9.44,2.31,0.8125,-0.5,1.375,-0.713562,0.5272827,-0.3352661,0.31677246,2026-05-18T18:10:59.835989,2,Device1,1
152926,3023171,1779111112646,-1.35,-9.48,2.33,1.1875,-1.8125,1.1875,-0.7137451,0.5272217,-0.33514404,0.31671143,2026-05-18T18:10:59.835989,2,Device1,1
152927,3023193,1779111112646,-1.35,-9.42,2.26,1.6875,-2.5,0.8125,-0.7142334,0.52697754,-0.33465576,0.31640625,2026-05-18T18:10:59.835989,2,Device1,1
152931,3023208,1779111112680,-1.46,-9.35,2.25,1.8125,-2.6875,0.5625,-0.7144165,0.52697754,-0.33441162,0.3163452,2026-05-18T18:10:59.835989,2,Device1,1
152935,3023235,1779111112705,-1.45,-9.38,2.26,1.625,-2.375,0.75,-0.7149048,0.5267334,-0.33392334,0.31610107,2026-05-18T18:10:59.835989,2,Device1,1
152933,3023254,1779111112706,-1.5,-9.43,2.28,2.25,-1.375,1.3125,-0.715271,0.5264282,-0.33380127,0.31591797,2026-05-18T18:10:59.835989,2,Device1,1
152937,3023276,1779111112740,-1.57,-9.42,2.24,2.5,-2.9375,1.4375,-0.7157593,0.52612305,-0.3334961,0.31567383,2026-05-18T18:10:59.835989,2,Device1,1
152939,3023317,1779111112763,-1.42,-9.4,2.26,2.375,-4.375,1.625,-0.71691895,0.52575684,-0.3324585,0.3147583,2026-05-18T18:10:59.835989,2,Device1,1
152940,3023294,1779111112763,-1.55,-9.42,2.24,2.5625,-4.5625,1.4375,-0.7163086,0.52593994,-0.3330078,0.31524658,2026-05-18T18:10:59.835989,2,Device1,1
152943,3023343,1779111112794,-1.33,-9.45,2.33,2.1875,-3.25,1.9375,-0.7174072,0.52557373,-0.33203125,0.3143921,2026-05-18T18:10:59.835989,2,Device1,1
152947,3023354,1779111112850,-1.35,-9.42,2.3,2.4375,-2.8125,2.1875,-0.7178955,0.5253296,-0.33172607,0.31402588,2026-05-18T18:10:59.835989,2,Device1,1
152948,3023377,1779111112852,-1.37,-9.43,2.32,2.5,-3.0625,2.125,-0.7184448,0.5250244,-0.33135986,0.31359863,2026-05-18T18:10:59.835989,2,Device1,1
152951,3023398,1779111112883,-1.36,-9.41,2.26,2.8125,-4.375,1.75,-0.7190552,0.5248413,-0.33081055,0.3131714,2026-05-18T18:10:59.835989,2,Device1,1
152952,3023413,1779111112884,-1.32,-9.38,2.23,3.125,-4.125,1.4375,-0.7196045,0.52459717,-0.33032227,0.3128662,2026-05-18T18:10:59.835989,2,Device1,1
152954,3023454,1779111112922,-1.35,-9.4,2.16,2.0,-1.3125,1.375,-0.7203369,0.52423096,-0.3297119,0.31243896,2026-05-18T18:10:59.835989,2,Device1,1
152955,3023439,1779111112922,-1.33,-9.38,2.19,2.375,-2.5,1.25,-0.72003174,0.52441406,-0.32989502,0.31256104,2026-05-18T18:10:59.835989,2,Device1,1
152957,3023479,1779111112943,-1.44,-9.36,2.16,1.3125,-0.875,1.3125,-0.72058105,0.52404785,-0.32965088,0.31225586,2026-05-18T18:10:59.835989,2,Device1,1
152959,3023499,1779111112952,-1.45,-9.32,2.15,0.6875,-1.3125,1.3125,-0.72076416,0.5239258,-0.32958984,0.31201172,2026-05-18T18:10:59.835989,2,Device1,1
152961,3023514,1779111112979,-1.39,-9.33,2.17,0.4375,-1.0,1.4375,-0.72088623,0.5239258,-0.32958984,0.31176758,2026-05-18T18:10:59.835989,2,Device1,1
152963,3023543,1779111112998,-1.38,-9.27,2.16,-0.0625,-0.5625,1.1875,-0.72094727,0.52386475,-0.32965088,0.31158447,2026-05-18T18:10:59.835989,2,Device1,1
152966,3023559,1779111113029,-1.33,-9.27,2.17,-0.5625,0.3125,0.9375,-0.7210083,0.52386475,-0.3297119,0.3114624,2026-05-18T18:10:59.835989,2,Device1,1
152967,3023578,1779111113029,-1.33,-9.33,2.19,-0.8125,0.625,0.625,-0.72094727,0.5239258,-0.32983398,0.31134033,2026-05-18T18:10:59.835989,2,Device1,1
152969,3023594,1779111113058,-1.36,-9.43,2.19,-0.9375,1.4375,0.5,-0.72076416,0.5239868,-0.33007812,0.3114624,2026-05-18T18:10:59.835989,2,Device1,1
152970,3023613,1779111113058,-1.32,-9.45,2.23,-0.625,1.9375,0.5625,-0.72058105,0.5239868,-0.33032227,0.31158447,2026-05-18T18:10:59.835989,2,Device1,1
152973,3023634,1779111113099,-1.2,-9.55,2.22,-0.625,3.8125,1.3125,-0.7202759,0.5239258,-0.33081055,0.3118286,2026-05-18T18:10:59.835989,2,Device1,1
152976,3023656,1779111113121,-1.19,-9.52,2.23,-0.875,4.375,1.5625,-0.7199707,0.52386475,-0.33135986,0.31207275,2026-05-18T18:10:59.835989,2,Device1,1
152977,3023673,1779111113121,-1.2,-9.44,2.28,-1.125,4.875,1.6875,-0.7196045,0.5237427,-0.3319702,0.31243896,2026-05-18T18:10:59.835989,2,Device1,1
152979,3023699,1779111113147,-1.23,-9.43,2.26,-1.0625,5.125,1.5625,-0.7192383,0.5236206,-0.33270264,0.31274414,2026-05-18T18:10:59.835989,2,Device1,1
152981,3023716,1779111113178,-1.34,-9.38,2.28,-1.1875,5.1875,1.3125,-0.7188721,0.5234375,-0.33343506,0.31304932,2026-05-18T18:10:59.835989,2,Device1,1
152983,3023740,1779111113209,-1.43,-9.32,2.25,-0.875,5.3125,1.125,-0.7185669,0.5232544,-0.33416748,0.3133545,2026-05-18T18:10:59.835989,2,Device1,1
152985,3023759,1779111113210,-1.49,-9.31,2.23,-0.6875,5.125,1.1875,-0.71832275,0.5229492,-0.3348999,0.31365967,2026-05-18T18:10:59.835989,2,Device1,1
152986,3023786,1779111113238,-1.51,-9.34,2.21,-0.4375,5.3125,1.1875,-0.7180786,0.52264404,-0.33569336,0.31396484,2026-05-18T18:10:59.835989,2,Device1,1
152990,3023804,1779111113269,-1.53,-9.34,2.19,-0.4375,5.4375,0.9375,-0.71765137,0.5220947,-0.336792,0.31451416,2026-05-18T18:10:59.835989,2,Device1,1
152991,3023820,1779111113270,-1.52,-9.37,2.17,-0.4375,5.3125,0.875,-0.7175293,0.5219116,-0.3371582,0.31469727,2026-05-18T18:10:59.835989,2,Device1,1
152993,3023844,1779111113300,-1.51,-9.39,2.16,-0.5,5.9375,0.6875,-0.71710205,0.5214844,-0.33831787,0.31530762,2026-05-18T18:10:59.835989,2,Device1,1
152994,3023860,1779111113301,-1.52,-9.44,2.19,-0.6875,6.0,0.6875,-0.7168579,0.52130127,-0.33874512,0.31549072,2026-05-18T18:10:59.835989,2,Device1,1
152997,3023882,1779111113343,-1.46,-9.42,2.2,-0.625,5.875,0.5625,-0.7164917,0.52111816,-0.33947754,0.315979,2026-05-18T18:10:59.835989,2,Device1,1
152999,3023904,1779111113363,-1.4,-9.51,2.19,-0.625,5.5625,0.1875,-0.71588135,0.520813,-0.34057617,0.31677246,2026-05-18T18:10:59.835989,2,Device1,1
153003,3023925,1779111113390,-1.39,-9.55,2.22,-0.5625,6.375,-0.3125,-0.7154541,0.5205078,-0.3413086,0.31732178,2026-05-18T18:10:59.835989,2,Device1,1
153002,3023944,1779111113392,-1.44,-9.58,2.23,-0.4375,7.0625,-0.1875,-0.71502686,0.52020264,-0.34210205,0.31799316,2026-05-18T18:10:59.835989,2,Device1,1
153005,3023967,1779111113419,-1.48,-9.51,2.24,-0.25,7.375,0.0,-0.7145996,0.5197754,-0.34295654,0.31866455,2026-05-18T18:10:59.835989,2,Device1,1
153008,3023986,1779111113448,-1.52,-9.47,2.23,-0.1875,7.0,0.0625,-0.71417236,0.5194092,-0.34381104,0.31933594,2026-05-18T18:10:59.835989,2,Device1,1
153010,3024008,1779111113481,-1.56,-9.43,2.24,-0.1875,6.6875,0.0625,-0.71380615,0.51904297,-0.3446045,0.3199463,2026-05-18T18:10:59.835989,2,Device1,1
153011,3024026,1779111113482,-1.58,-9.36,2.24,-0.0625,6.375,-0.3125,-0.7133789,0.51867676,-0.34539795,0.3204956,2026-05-18T18:10:59.835989,2,Device1,1
153014,3024047,1779111113509,-1.67,-9.41,2.2,0.0625,6.375,-0.5,-0.7130127,0.51831055,-0.3461914,0.32104492,2026-05-18T18:10:59.835989,2,Device1,1
153015,3024066,1779111113510,-1.69,-9.4,2.19,-0.0625,6.3125,-0.5625,-0.7126465,0.51794434,-0.34698486,0.32159424,2026-05-18T18:10:59.835989,2,Device1,1
153016,3024088,1779111113539,-1.71,-9.42,2.19,0.125,6.375,-0.5,-0.7122803,0.5175781,-0.34777832,0.32214355,2026-05-18T18:10:59.835989,2,Device1,1
153020,3024107,1779111113568,-1.74,-9.41,2.21,-0.125,5.5,-0.6875,-0.7119751,0.517334,-0.34832764,0.32269287,2026-05-18T18:10:59.835989,2,Device1,1
153021,3024124,1779111113570,-1.67,-9.41,2.2,-0.4375,4.375,-1.125,-0.7116699,0.5171509,-0.34881592,0.32318115,2026-05-18T18:10:59.835989,2,Device1,1
153023,3024145,1779111113599,-1.62,-9.41,2.19,-0.5,4.375,-1.6875,-0.7113037,0.5169678,-0.34918213,0.32373047,2026-05-18T18:10:59.835989,2,Device1,1
153026,3024167,1779111113629,-1.66,-9.4,2.22,-0.625,4.3125,-1.9375,-0.7109375,0.51690674,-0.34954834,0.32434082,2026-05-18T18:10:59.835989,2,Device1,1
153028,3024189,1779111113658,-1.68,-9.37,2.2,-0.6875,3.875,-1.875,-0.71051025,0.5168457,-0.34991455,0.32489014,2026-05-18T18:10:59.835989,2,Device1,1
153029,3024207,1779111113658,-1.68,-9.38,2.22,-0.8125,3.0625,-1.8125,-0.7102051,0.5168457,-0.35021973,0.32531738,2026-05-18T18:10:59.835989,2,Device1,1
153032,3024228,1779111113691,-1.69,-9.39,2.25,-0.875,2.625,-1.9375,-0.7098999,0.5168457,-0.35046387,0.32574463,2026-05-18T18:10:59.835989,2,Device1,1
153034,3024253,1779111113726,-1.69,-9.35,2.19,-0.625,2.25,-1.875,-0.70947266,0.51690674,-0.350708,0.32629395,2026-05-18T18:10:59.835989,2,Device1,1
153036,3024273,1779111113727,-1.67,-9.35,2.2,-1.0,2.125,-1.625,-0.7093506,0.51690674,-0.35083008,0.32641602,2026-05-18T18:10:59.835989,2,Device1,1
153038,3024291,1779111113757,-1.7,-9.36,2.21,-0.9375,2.125,-1.6875,-0.7090454,0.5169678,-0.35101318,0.3267212,2026-05-18T18:10:59.835989,2,Device1,1
153041,3024311,1779111113782,-1.72,-9.39,2.2,-0.875,1.8125,-1.5625,-0.70880127,0.5170288,-0.3511963,0.32702637,2026-05-18T18:10:59.835989,2,Device1,1
153042,3024336,1779111113783,-1.69,-9.38,2.21,-0.875,1.375,-1.4375,-0.7084961,0.51708984,-0.3513794,0.32733154,2026-05-18T18:10:59.835989,2,Device1,1
153044,3024356,1779111113816,-1.7,-9.45,2.21,-1.0625,1.6875,-1.25,-0.708313,0.5171509,-0.3515625,0.32751465,2026-05-18T18:10:59.835989,2,Device1,1
153046,3024371,1779111113839,-1.73,-9.56,2.29,-0.8125,2.25,-1.1875,-0.7081909,0.5171509,-0.35168457,0.32763672,2026-05-18T18:10:59.835989,2,Device1,1
153047,3024394,1779111113840,-1.87,-9.72,2.32,-1.5,2.9375,-0.5625,-0.7077637,0.5170288,-0.35229492,0.32800293,2026-05-18T18:10:59.835989,2,Device1,1
153050,3024411,1779111113868,-1.9,-9.62,2.46,-1.4375,2.125,-0.1875,-0.7077637,0.5169678,-0.35253906,0.32800293,2026-05-18T18:10:59.835989,2,Device1,1
153052,3024434,1779111113899,-1.85,-9.49,2.43,-1.3125,0.1875,0.6875,-0.7080078,0.51660156,-0.35284424,0.32763672,2026-05-18T18:10:59.835989,2,Device1,1
153053,3024455,1779111113900,-1.8,-9.36,2.36,0.3125,-1.5625,2.3125,-0.708374,0.5162964,-0.3529663,0.32720947,2026-05-18T18:10:59.835989,2,Device1,1
153056,3024477,1779111113936,-1.58,-9.22,2.24,1.1875,-1.4375,3.0,-0.70874023,0.5161133,-0.3529663,0.32678223,2026-05-18T18:10:59.835989,2,Device1,1
153058,3024498,1779111113967,-1.46,-9.18,2.17,2.0,1.125,3.1875,-0.7090454,0.515625,-0.3531494,0.32659912,2026-05-18T18:10:59.835989,2,Device1,1
153061,3024520,1779111113999,-1.5,-9.26,2.07,2.375,4.625,3.5625,-0.7091675,0.5149536,-0.3538208,0.32666016,2026-05-18T18:10:59.835989,2,Device1,1
153062,3024537,1779111113999,-1.52,-9.16,2.07,2.1875,5.625,3.6875,-0.7092285,0.51416016,-0.3546753,0.32684326,2026-05-18T18:10:59.835989,2,Device1,1
153064,3024557,1779111114023,-1.33,-9.15,2.04,1.4375,4.5625,3.6875,-0.70928955,0.51348877,-0.3554077,0.32696533,2026-05-18T18:10:59.835989,2,Device1,1
153066,3024577,1779111114024,-1.35,-9.23,2.05,0.375,4.3125,3.8125,-0.7091675,0.5130615,-0.35614014,0.32702637,2026-05-18T18:10:59.835989,2,Device1,1
153068,3024602,1779111114067,-1.31,-9.27,2.14,-0.375,3.5625,3.25,-0.7090454,0.5128174,-0.35668945,0.32714844,2026-05-18T18:10:59.835989,2,Device1,1
153070,3024618,1779111114080,-1.26,-9.22,2.17,-1.125,3.8125,2.6875,-0.7088623,0.5126953,-0.3571167,0.32733154,2026-05-18T18:10:59.835989,2,Device1,1
153071,3024639,1779111114081,-1.35,-9.31,2.14,-1.875,5.625,2.75,-0.70843506,0.51257324,-0.3577881,0.32763672,2026-05-18T18:10:59.835989,2,Device1,1
153074,3024662,1779111114119,-1.53,-9.39,2.18,-2.9375,7.5625,2.5,-0.70788574,0.5124512,-0.35876465,0.3279419,2026-05-18T18:10:59.835989,2,Device1,1
153076,3024679,1779111114150,-1.66,-9.43,2.22,-3.9375,8.3125,1.875,-0.70721436,0.5123291,-0.36010742,0.32824707,2026-05-18T18:10:59.835989,2,Device1,1
153079,3024699,1779111114172,-1.75,-9.55,2.41,-5.125,7.0625,1.125,-0.7064209,0.51239014,-0.36138916,0.32843018,2026-05-18T18:10:59.835989,2,Device1,1
153080,3024718,1779111114172,-1.81,-9.62,2.8,-5.375,7.25,0.0625,-0.7055054,0.5126343,-0.36254883,0.32867432,2026-05-18T18:10:59.835989,2,Device1,1
153082,3024739,1779111114205,-1.44,-9.4,3.18,-3.0,8.5,0.0625,-0.7046509,0.5126343,-0.3637085,0.3291626,2026-05-18T18:10:59.835989,2,Device1,1
153085,3024763,1779111114228,-1.6,-9.43,3.06,1.5,17.5625,-1.0625,-0.70373535,0.5118408,-0.36535645,0.3305664,2026-05-18T18:10:59.835989,2,Device1,1
153086,3024780,1779111114230,-2.66,-9.14,3.66,5.8125,22.8125,-1.9375,-0.70269775,0.51013184,-0.36761475,0.3330078,2026-05-18T18:10:59.835989,2,Device1,1
153087,3024804,1779111114258,-2.47,-9.1,4.56,11.0,11.1875,-3.8125,-0.7023926,0.5083008,-0.3685913,0.3352661,2026-05-18T18:10:59.835989,2,Device1,1
153089,3024819,1779111114261,-1.88,-8.93,5.31,16.1875,-4.8125,-7.1875,-0.70336914,0.50701904,-0.36706543,0.33685303,2026-05-18T18:10:59.835989,2,Device1,1
153092,3024844,1779111114292,-3.25,-9.06,5.53,20.875,-7.5625,-5.75,-0.7052002,0.5054321,-0.36450195,0.33813477,2026-05-18T18:10:59.835989,2,Device1,1
153094,3024860,1779111114318,-3.03,-9.12,5.12,25.0625,-14.75,-10.9375,-0.7074585,0.5038452,-0.36090088,0.33972168,2026-05-18T18:10:59.835989,2,Device1,1
153097,3024885,1779111114349,-2.77,-9.25,4.94,29.1875,-0.125,-9.6875,-0.7104492,0.50042725,-0.3560791,0.3435669,2026-05-18T18:10:59.835989,2,Device1,1
153098,3024907,1779111114349,-4.54,-9.68,4.92,32.5,-8.125,-6.0,-0.71398926,0.4973755,-0.35180664,0.34503174,2026-05-18T18:10:59.835989,2,Device1,1
153099,3024920,1779111114381,-3.64,-9.61,5.14,40.9375,-29.25,-1.0,-0.71661377,0.4958496,-0.34875488,0.3449707,2026-05-18T18:10:59.835989,2,Device1,1
153103,3024947,1779111114410,-2.63,-9.25,4.92,44.625,-21.375,6.0,-0.72442627,0.48883057,-0.3421631,0.3451538,2026-05-18T18:10:59.835989,2,Device1,1
153104,3024961,1779111114410,-3.51,-9.22,4.67,45.5625,5.875,18.8125,-0.7266846,0.48535156,-0.34197998,0.34558105,2026-05-18T18:10:59.835989,2,Device1,1
153105,3024985,1779111114441,-4.95,-9.2,4.96,47.1875,12.75,44.3125,-0.73413086,0.47253418,-0.34490967,0.34466553,2026-05-18T18:10:59.835989,2,Device1,1
153109,3025021,1779111114477,-4.19,-9.47,5.09,57.3125,-0.25,63.5,-0.7456665,0.4574585,-0.34698486,0.33813477,2026-05-18T18:10:59.835989,2,Device1,1
153110,3025006,1779111114477,-4.77,-9.38,4.92,54.0625,0.3125,58.125,-0.741272,0.46258545,-0.34655762,0.3411255,2026-05-18T18:10:59.835989,2,Device1,1
153112,3025047,1779111114507,-4.19,-9.94,5.63,63.1875,13.0625,78.625,-0.7581787,0.43725586,-0.35333252,0.33032227,2026-05-18T18:10:59.835989,2,Device1,1
153115,3025061,1779111114533,-5.1,-10.11,5.87,68.3125,39.5,98.4375,-0.76226807,0.42877197,-0.35760498,0.3274536,2026-05-18T18:10:59.835989,2,Device1,1
153116,3025086,1779111114533,-6.31,-10.36,5.71,74.4375,47.5625,130.0625,-0.7753906,0.40014648,-0.37298584,0.31536865,2026-05-18T18:10:59.835989,2,Device1,1
153118,3025109,1779111114557,-7.44,-10.64,7.06,77.1875,46.0625,139.625,-0.7854004,0.3782959,-0.3840332,0.3043213,2026-05-18T18:10:59.835989,2,Device1,1
153121,3025127,1779111114588,-7.56,-10.45,6.67,87.5,28.875,165.9375,-0.7969971,0.3548584,-0.39367676,0.2897339,2026-05-18T18:10:59.835989,2,Device1,1
153122,3025149,1779111114588,-7.36,-10.06,6.55,90.875,23.0625,183.125,-0.80908203,0.3295288,-0.40289307,0.27294922,2026-05-18T18:10:59.835989,2,Device1,1
153124,3025165,1779111114618,-8.13,-9.96,6.24,91.875,23.5625,191.5625,-0.821228,0.3024292,-0.41204834,0.25354004,2026-05-18T18:10:59.835989,2,Device1,1
153127,3025188,1779111114650,-9.12,-10.09,6.69,95.5,9.125,208.1875,-0.83428955,0.27374268,-0.41912842,0.23101807,2026-05-18T18:10:59.835989,2,Device1,1
153128,3025205,1779111114650,-8.8,-10.06,6.33,101.125,-3.9375,220.5,-0.8474121,0.24353027,-0.42425537,0.20629883,2026-05-18T18:10:59.835989,2,Device1,1
153130,3025226,1779111114680,-8.54,-9.81,5.84,105.0625,-10.8125,231.9375,-0.8599243,0.21179199,-0.42816162,0.17974854,2026-05-18T18:10:59.835989,2,Device1,1
153133,3025249,1779111114713,-8.03,-8.76,5.62,107.625,-2.125,239.0,-0.87060547,0.17889404,-0.43225098,0.15246582,2026-05-18T18:10:59.835989,2,Device1,1
153134,3025268,1779111114714,-8.3,-8.25,5.61,107.8125,4.125,239.9375,-0.8786621,0.1451416,-0.4373169,0.12487793,2026-05-18T18:10:59.835989,2,Device1,1
153136,3025286,1779111114740,-8.25,-6.63,5.63,102.4375,13.5625,248.375,-0.8845215,0.111083984,-0.44274902,0.096069336,2026-05-18T18:10:59.835989,2,Device1,1
153139,3025307,1779111114767,-8.95,-6.01,5.92,100.6875,12.1875,253.3125,-0.888855,0.07678223,-0.44696045,0.06549072,2026-05-18T18:10:59.835989,2,Device1,1
153140,3025325,1779111114768,-9.62,-5.96,5.7,98.9375,-0.375,260.25,-0.89245605,0.042053223,-0.44787598,0.033569336,2026-05-18T18:10:59.835989,2,Device1,1
153142,3025349,1779111114797,-9.02,-6.02,5.45,101.125,-28.375,267.4375,-0.8955078,0.0067749023,-0.44500732,0.0007324219,2026-05-18T18:10:59.835989,2,Device1,1
153145,3025366,1779111114827,-7.31,-4.29,4.28,98.3125,-21.1875,266.75,-0.8964844,-0.028320312,-0.44091797,-0.032226562,2026-05-18T18:10:59.835989,2,Device1,1
153146,3025386,1779111114829,-7.75,-4.07,4.02,91.1875,1.9375,267.9375,-0.89385986,-0.06225586,-0.43914795,-0.06567383,2026-05-18T18:10:59.835989,2,Device1,1
153147,3025408,1779111114859,-7.61,-2.55,4.15,83.75,7.75,267.6875,-0.88842773,-0.09490967,-0.4378662,-0.09979248,2026-05-18T18:10:59.835989,2,Device1,1
153151,3025439,1779111114889,-7.02,-1.7,3.45,72.25,5.25,263.5625,-0.88134766,-0.12561035,-0.43536377,-0.13397217,2026-05-18T18:10:59.835989,2,Device1,1
153152,3025449,1779111114889,-6.84,-1.4,3.48,61.25,-3.3125,259.0625,-0.87323,-0.15411377,-0.43078613,-0.16784668,2026-05-18T18:10:59.835989,2,Device1,1
153154,3025468,1779111114918,-4.95,-0.48,2.97,54.5625,-31.25,248.5,-0.8654785,-0.18121338,-0.42193604,-0.20007324,2026-05-18T18:10:59.835989,2,Device1,1
153157,3025490,1779111114949,-4.27,-0.15,2.82,50.625,-43.5,240.4375,-0.8580322,-0.20727539,-0.40966797,-0.23028564,2026-05-18T18:10:59.835989,2,Device1,1
153158,3025509,1779111114949,-1.77,1.9,2.43,45.8125,-34.3125,222.875,-0.84936523,-0.23120117,-0.3977661,-0.25860596,2026-05-18T18:10:59.835989,2,Device1,1
153161,3025535,1779111114981,-1.66,2.44,1.91,32.6875,-13.3125,201.125,-0.8397217,-0.25097656,-0.38830566,-0.28485107,2026-05-18T18:10:59.835989,2,Device1,1
153163,3025555,1779111115008,-2.54,2.43,2.16,18.75,2.875,176.6875,-0.8295288,-0.2659912,-0.3814087,-0.30926514,2026-05-18T18:10:59.835989,2,Device1,1
153165,3025573,1779111115040,-2.56,2.9,2.15,9.8125,0.875,150.0625,-0.8198242,-0.27685547,-0.37561035,-0.33190918,2026-05-18T18:10:59.835989,2,Device1,1
153166,3025591,1779111115041,-2.82,3.42,2.58,0.9375,6.5,127.5625,-0.8116455,-0.2854004,-0.3701172,-0.35028076,2026-05-18T18:10:59.835989,2,Device1,1
153169,3025609,1779111115068,-3.43,3.46,3.42,-5.1875,13.75,107.375,-0.8043823,-0.29119873,-0.3659668,-0.36639404,2026-05-18T18:10:59.835989,2,Device1,1
153171,3025636,1779111115102,-3.76,4.14,3.22,-7.375,34.375,88.375,-0.79608154,-0.2932129,-0.36566162,-0.38293457,2026-05-18T18:10:59.835989,2,Device1,1
153172,3025657,1779111115103,-3.87,5.25,3.33,-7.25,46.9375,76.6875,-0.78466797,-0.29418945,-0.36846924,-0.4024048,2026-05-18T18:10:59.835989,2,Device1,1
153175,3025671,1779111115137,-4.28,6.27,4.14,-7.875,56.125,66.75,-0.78009033,-0.29315186,-0.37078857,-0.4099121,2026-05-18T18:10:59.835989,2,Device1,1
153177,3025695,1779111115167,-4.16,6.93,4.79,-7.25,63.375,59.375,-0.7682495,-0.2909546,-0.37780762,-0.427063,2026-05-18T18:10:59.835989,2,Device1,1
153178,3025712,1779111115167,-4.47,8.22,6.07,-3.125,55.625,61.5,-0.76434326,-0.29071045,-0.37982178,-0.43249512,2026-05-18T18:10:59.835989,2,Device1,1
153182,3025737,1779111115220,-3.72,8.62,5.32,-2.6875,35.25,65.75,-0.75219727,-0.2909546,-0.38330078,-0.45013428,2026-05-18T18:10:59.835989,2,Device1,1
153183,3025757,1779111115220,-4.58,8.85,4.71,-5.375,17.4375,65.6875,-0.7458496,-0.2929077,-0.3826294,-0.4598999,2026-05-18T18:10:59.835989,2,Device1,1
153186,3025773,1779111115250,-3.69,8.89,4.47,-8.25,4.0,63.0,-0.7423096,-0.29327393,-0.38171387,-0.46606445,2026-05-18T18:10:59.835989,2,Device1,1
153187,3025797,1779111115259,-3.01,7.65,5.13,-14.4375,-31.75,50.75,-0.73876953,-0.29858398,-0.37219238,-0.47601318,2026-05-18T18:10:59.835989,2,Device1,1
153189,3025818,1779111115285,-2.46,7.58,5.21,-13.8125,-37.1875,41.8125,-0.73779297,-0.30230713,-0.36444092,-0.48114014,2026-05-18T18:10:59.835989,2,Device1,1
153192,3025840,1779111115308,-1.2,7.32,5.01,-13.8125,-30.4375,38.0625,-0.7369385,-0.30474854,-0.35839844,-0.48535156,2026-05-18T18:10:59.835989,2,Device1,1
153193,3025858,1779111115309,-1.46,6.82,5.07,-13.3125,-2.9375,32.625,-0.7348633,-0.30474854,-0.3560791,-0.49017334,2026-05-18T18:10:59.835989,2,Device1,1
153195,3025873,1779111115337,-2.62,6.31,4.74,-12.0,15.625,26.6875,-0.7328491,-0.3036499,-0.35632324,-0.49371338,2026-05-18T18:10:59.835989,2,Device1,1
153198,3025898,1779111115368,-2.35,6.1,4.2,-11.1875,16.3125,22.625,-0.7294922,-0.30151367,-0.3560791,-0.5001221,2026-05-18T18:10:59.835989,2,Device1,1
153199,3025916,1779111115369,-1.91,5.62,4.25,-15.3125,10.3125,15.75,-0.7271118,-0.29907227,-0.355896,-0.50512695,2026-05-18T18:10:59.835989,2,Device1,1
153202,3025946,1779111115411,-2.02,4.57,4.48,-13.5625,0.3125,6.75,-0.7268677,-0.2975464,-0.3546753,-0.5073242,2026-05-18T18:10:59.835989,2,Device1,1
153203,3025957,1779111115411,-1.76,4.62,4.47,-10.1875,-13.4375,-2.3125,-0.72802734,-0.29711914,-0.352417,-0.5074463,2026-05-18T18:10:59.835989,2,Device1,1
153205,3025977,1779111115435,0.53,5.08,4.73,-7.75,-0.8125,-13.75,-0.72888184,-0.29541016,-0.35205078,-0.5075073,2026-05-18T18:10:59.835989,2,Device1,1
153207,3026019,1779111115466,-0.79,5.96,6.45,-8.75,55.75,-27.6875,-0.7286377,-0.28356934,-0.3626709,-0.5071411,2026-05-18T18:10:59.835989,2,Device1,1
153209,3025999,1779111115468,-0.42,5.14,5.57,-8.8125,35.5,-21.5,-0.72943115,-0.2909546,-0.35546875,-0.50683594,2026-05-18T18:10:59.835989,2,Device1,1
153211,3026040,1779111115493,-1.33,6.8,6.88,-8.75,61.375,-33.25,-0.7279663,-0.2753296,-0.3708496,-0.50665283,2026-05-18T18:10:59.835989,2,Device1,1
153213,3026064,1779111115518,-2.4,8.15,7.92,-10.0625,47.0625,-38.1875,-0.7282715,-0.26727295,-0.37823486,-0.50512695,2026-05-18T18:10:59.835989,2,Device1,1
153216,3026084,1779111115550,-1.09,8.96,8.5,-13.3125,12.6875,-39.9375,-0.7294922,-0.26037598,-0.38226318,-0.5039673,2026-05-18T18:10:59.835989,2,Device1,1
153217,3026100,1779111115550,-0.46,10.14,9.42,-19.4375,3.0625,-39.0,-0.7333374,-0.25531006,-0.38287354,-0.50042725,2026-05-18T18:10:59.835989,2,Device1,1
153219,3026119,1779111115578,-1.18,10.5,10.78,-26.25,-0.4375,-39.1875,-0.7375488,-0.24951172,-0.38275146,-0.49725342,2026-05-18T18:10:59.835989,2,Device1,1
153222,3026147,1779111115609,-0.86,11.13,11.67,-30.0,-35.875,-36.375,-0.7435303,-0.24554443,-0.3786621,-0.49346924,2026-05-18T18:10:59.835989,2,Device1,1
153223,3026165,1779111115610,-0.15,11.63,11.85,-31.5625,-87.8125,-35.6875,-0.7583008,-0.24725342,-0.35998535,-0.48394775,2026-05-18T18:10:59.835989,2,Device1,1
153225,3026190,1779111115638,4.5,11.91,11.97,-31.3125,-166.75,-47.8125,-0.772522,-0.2532959,-0.33892822,-0.47351074,2026-05-18T18:10:59.835989,2,Device1,1
153228,3026207,1779111115669,10.99,13.64,12.24,-27.25,-175.6875,-72.625,-0.78863525,-0.2597046,-0.31640625,-0.45880127,2026-05-18T18:10:59.835989,2,Device1,1
153229,3026226,1779111115670,11.58,14.37,12.15,-24.0,-159.9375,-105.875,-0.80596924,-0.26416016,-0.29638672,-0.43902588,2026-05-18T18:10:59.835989,2,Device1,1
153231,3026251,1779111115698,11.56,15.06,11.28,-23.3125,-137.4375,-147.125,-0.8237915,-0.2645874,-0.28125,-0.41503906,2026-05-18T18:10:59.835989,2,Device1,1
153234,3026267,1779111115732,9.39,14.76,10.66,-18.9375,-136.0,-190.8125,-0.84313965,-0.2625122,-0.2687378,-0.38464355,2026-05-18T18:10:59.835989,2,Device1,1
153235,3026289,1779111115732,2.76,12.21,7.53,-10.625,-139.6875,-238.0,-0.86383057,-0.2592163,-0.25805664,-0.34649658,2026-05-18T18:10:59.835989,2,Device1,1
153237,3026308,1779111115770,0.0,9.32,5.67,-16.4375,-166.1875,-276.625,-0.8858032,-0.25439453,-0.2454834,-0.30059814,2026-05-18T18:10:59.835989,2,Device1,1
153240,3026328,1779111115797,0.42,4.52,3.85,-33.75,-197.6875,-313.9375,-0.90960693,-0.24584961,-0.22723389,-0.24597168,2026-05-18T18:10:59.835989,2,Device1,1
153242,3026354,1779111115819,-0.2,0.36,2.93,-56.8125,-179.5625,-354.8125,-0.9310913,-0.23217773,-0.21038818,-0.18676758,2026-05-18T18:10:59.835989,2,Device1,1
153244,3026369,1779111115821,-2.58,-10.29,5.05,-98.4375,-102.75,-403.625,-0.9491577,-0.20880127,-0.20123291,-0.1227417,2026-05-18T18:10:59.835989,2,Device1,1
153246,3026390,1779111115856,-6.0,-19.18,6.92,-92.0,-33.4375,-391.5625,-0.96069336,-0.18109131,-0.2019043,-0.059509277,2026-05-18T18:10:59.835989,2,Device1,1
153247,3026409,1779111115856,-16.15,-22.48,6.16,-60.0625,-83.4375,-368.875,-0.96655273,-0.15740967,-0.20239258,0.00030517578,2026-05-18T18:10:59.835989,2,Device1,1
153249,3026434,1779111115887,-11.3,-17.25,4.24,-33.5625,-191.75,-325.4375,-0.9714966,-0.13885498,-0.18273926,0.059509277,2026-05-18T18:10:59.835989,2,Device1,1
153252,3026469,1779111115916,-9.81,-3.62,8.16,-11.9375,92.25,-99.375,-0.9682617,-0.11859131,-0.18511963,0.11895752,2026-05-18T18:10:59.835989,2,Device1,1
153253,3026455,1779111115916,1.31,-6.62,5.08,-38.0,-57.3125,-210.625,-0.972229,-0.12445068,-0.17114258,0.099975586,2026-05-18T18:10:59.835989,2,Device1,1
153255,3026495,1779111115937,-8.45,-0.61,7.84,5.625,54.1875,-25.1875,-0.9650879,-0.11920166,-0.19732666,0.12426758,2026-05-18T18:10:59.835989,2,Device1,1
153258,3026509,1779111115967,-5.63,-1.17,7.93,-2.0625,3.25,-0.8125,-0.96447754,-0.119384766,-0.19976807,0.124816895,2026-05-18T18:10:59.835989,2,Device1,1
153260,3026534,1779111115999,-2.4,-1.47,7.56,-3.875,-12.6875,13.625,-0.96520996,-0.118774414,-0.1975708,0.12335205,2026-05-18T18:10:59.835989,2,Device1,1
153262,3026571,1779111116028,-3.47,-1.6,8.85,2.8125,58.875,34.8125,-0.96398926,-0.12176514,-0.20776367,0.11291504,2026-05-18T18:10:59.835989,2,Device1,1
153263,3026559,1779111116028,-2.48,-1.36,8.48,-2.625,27.8125,25.5,-0.9651489,-0.119384766,-0.19995117,0.11920166,2026-05-18T18:10:59.835989,2,Device1,1
153266,3026596,1779111116063,-5.31,-2.18,9.0,9.0,61.4375,63.9375,-0.96173096,-0.1281128,-0.22125244,0.09844971,2026-05-18T18:10:59.835989,2,Device1,1
153267,3026612,1779111116064,-5.54,-2.89,9.25,11.5625,57.1875,76.75,-0.9611206,-0.13092041,-0.22497559,0.091796875,2026-05-18T18:10:59.835989,2,Device1,1
153270,3026637,1779111116095,-5.57,-3.44,9.07,19.6875,43.0,119.0,-0.9598999,-0.14233398,-0.23254395,0.06555176,2026-05-18T18:10:59.835989,2,Device1,1
153272,3026676,1779111116120,-5.45,-7.12,8.1,37.125,62.75,190.4375,-0.9569092,-0.16540527,-0.23828125,0.012756348,2026-05-18T18:10:59.835989,2,Device1,1
153273,3026657,1779111116120,-5.35,-4.33,8.27,26.6875,35.1875,153.75,-0.9592285,-0.15234375,-0.234375,0.042236328,2026-05-18T18:10:59.835989,2,Device1,1
153276,3026697,1779111116155,-5.28,-7.66,7.8,40.875,81.1875,207.4375,-0.9517212,-0.18078613,-0.24700928,-0.022705078,2026-05-18T18:10:59.835989,2,Device1,1
153278,3026712,1779111116179,-6.75,-5.82,7.18,42.25,125.3125,226.9375,-0.94781494,-0.18859863,-0.2536621,-0.041931152,2026-05-18T18:10:59.835989,2,Device1,1
153281,3026741,1779111116211,-7.45,-3.75,7.29,42.125,142.3125,236.1875,-0.9319458,-0.21191406,-0.27593994,-0.10235596,2026-05-18T18:10:59.835989,2,Device1,1
153282,3026758,1779111116211,-8.32,0.41,6.53,37.5625,130.875,233.0,-0.91918945,-0.2265625,-0.28894043,-0.14227295,2026-05-18T18:10:59.835989,2,Device1,1
153284,3026778,1779111116244,-7.38,2.74,8.65,33.5625,104.0625,211.25,-0.9064331,-0.23962402,-0.29864502,-0.17840576,2026-05-18T18:10:59.835989,2,Device1,1
153285,3026796,1779111116245,-4.94,6.72,8.31,27.3125,69.3125,198.8125,-0.8945923,-0.25177002,-0.3031006,-0.21069336,2026-05-18T18:10:59.835989,2,Device1,1
153288,3026820,1779111116270,-5.56,8.36,6.78,16.75,36.625,191.0625,-0.8840332,-0.26287842,-0.3022461,-0.24078369,2026-05-18T18:10:59.835989,2,Device1,1
153290,3026837,1779111116297,-3.63,8.19,5.73,11.875,-2.875,182.125,-0.8753052,-0.2738037,-0.2952881,-0.2677002,2026-05-18T18:10:59.835989,2,Device1,1
153293,3026862,1779111116329,-2.12,7.84,6.44,13.0625,5.5,164.1875,-0.8666992,-0.28393555,-0.2880249,-0.29205322,2026-05-18T18:10:59.835989,2,Device1,1
153294,3026881,1779111116329,0.08,7.73,7.13,19.3125,32.0,151.9375,-0.85668945,-0.2927246,-0.28503418,-0.31488037,2026-05-18T18:10:59.835989,2,Device1,1
153296,3026897,1779111116358,0.11,8.18,6.86,19.6875,58.5625,140.3125,-0.8452759,-0.29962158,-0.28649902,-0.3371582,2026-05-18T18:10:59.835989,2,Device1,1
153299,3026919,1779111116388,0.08,8.15,5.86,14.625,75.25,130.4375,-0.8328247,-0.30389404,-0.2911377,-0.35949707,2026-05-18T18:10:59.835989,2,Device1,1
153300,3026946,1779111116388,-1.56,7.09,5.91,16.8125,79.0,127.1875,-0.8201294,-0.30755615,-0.29644775,-0.38067627,2026-05-18T18:10:59.835989,2,Device1,1
153302,3026959,1779111116421,-1.7,6.96,5.77,24.8125,76.625,122.1875,-0.80688477,-0.31176758,-0.30218506,-0.4005127,2026-05-18T18:10:59.835989,2,Device1,1
153305,3026982,1779111116455,-1.21,8.23,5.59,31.875,74.6875,117.8125,-0.7930298,-0.31677246,-0.3081665,-0.4192505,2026-05-18T18:10:59.835989,2,Device1,1
153307,3027011,1779111116480,-0.6,7.83,5.41,33.75,77.5,112.875,-0.77178955,-0.3239746,-0.3180542,-0.44519043,2026-05-18T18:10:59.835989,2,Device1,1
153308,3027027,1779111116480,-1.16,6.5,5.54,40.625,68.6875,109.125,-0.7571411,-0.32922363,-0.32452393,-0.46154785,2026-05-18T18:10:59.835989,2,Device1,1
153311,3027063,1779111116516,1.01,7.33,4.88,51.0,63.5625,102.625,-0.7352295,-0.3395996,-0.33319092,-0.4827881,2026-05-18T18:10:59.835989,2,Device1,1
153312,3027048,1779111116516,-1.0,6.71,5.43,44.6875,62.6875,107.9375,-0.74261475,-0.3361206,-0.33007812,-0.47601318,2026-05-18T18:10:59.835989,2,Device1,1
153314,3027087,1779111116547,1.67,8.15,4.61,47.9375,109.3125,89.8125,-0.71087646,-0.34558105,-0.3479004,-0.5041504,2026-05-18T18:10:59.835989,2,Device1,1
153317,3027110,1779111116576,1.1,8.62,4.62,39.4375,143.0625,83.125,-0.69299316,-0.34375,-0.36279297,-0.5196533,2026-05-18T18:10:59.835989,2,Device1,1
153319,3027138,1779111116602,-0.02,8.6,3.42,33.8125,138.3125,73.5,-0.67492676,-0.33972168,-0.37805176,-0.5348511,2026-05-18T18:10:59.835989,2,Device1,1
153321,3027176,1779111116629,0.03,8.23,4.4,25.1875,105.0625,34.4375,-0.6473999,-0.3314209,-0.40307617,-0.55548096,2026-05-18T18:10:59.835989,2,Device1,1
153322,3027159,1779111116629,-0.09,8.56,3.16,29.0,114.0625,54.375,-0.6536255,-0.3340454,-0.3968506,-0.5510864,2026-05-18T18:10:59.835989,2,Device1,1
153325,3027197,1779111116658,0.53,8.35,4.3,22.375,110.9375,15.1875,-0.63079834,-0.3218994,-0.4222412,-0.5657959,2026-05-18T18:10:59.835989,2,Device1,1
153326,3027213,1779111116661,0.91,7.91,4.42,22.625,109.125,4.0,-0.62609863,-0.31799316,-0.4290161,-0.56817627,2026-05-18T18:10:59.835989,2,Device1,1
153329,3027238,1779111116691,0.03,7.27,5.98,33.0,79.875,-23.9375,-0.6156006,-0.30688477,-0.4491577,-0.5701904,2026-05-18T18:10:59.835989,2,Device1,1
153331,3027257,1779111116729,-0.78,8.27,6.64,41.125,36.625,-33.25,-0.61291504,-0.3040161,-0.45947266,-0.5663452,2026-05-18T18:10:59.835989,2,Device1,1
153332,3027274,1779111116729,1.04,9.5,5.73,41.6875,24.875,-38.75,-0.6129761,-0.3036499,-0.46362305,-0.56311035,2026-05-18T18:10:59.835989,2,Device1,1
153335,3027297,1779111116759,0.76,10.54,6.19,25.0625,54.6875,-49.125,-0.6123047,-0.29711914,-0.4781494,-0.55511475,2026-05-18T18:10:59.835989,2,Device1,1
153337,3027317,1779111116786,-2.36,11.21,7.04,17.9375,55.0,-45.8125,-0.6118164,-0.2906494,-0.48657227,-0.5517578,2026-05-18T18:10:59.835989,2,Device1,1
153340,3027342,1779111116811,-5.44,11.17,7.52,-1.1875,-16.75,-28.75,-0.61486816,-0.28833008,-0.48815918,-0.54815674,2026-05-18T18:10:59.835989,2,Device1,1
153341,3027362,1779111116811,-5.29,11.38,7.33,-14.8125,-71.5,-12.875,-0.6218262,-0.29125977,-0.4817505,-0.5444946,2026-05-18T18:10:59.835989,2,Device1,1
153343,3027378,1779111116838,-2.47,11.27,7.18,-28.5,-84.75,-1.6875,-0.63031006,-0.29608154,-0.4706421,-0.54174805,2026-05-18T18:10:59.835989,2,Device1,1
153346,3027406,1779111116868,-1.17,10.45,8.42,-36.875,-70.625,1.8125,-0.6378174,-0.29907227,-0.45941162,-0.5409546,2026-05-18T18:10:59.835989,2,Device1,1
153347,3027422,1779111116868,-1.25,10.35,8.48,-39.5625,-72.5625,3.375,-0.6460571,-0.30255127,-0.4473877,-0.5393677,2026-05-18T18:10:59.835989,2,Device1,1
153349,3027446,1779111116898,-0.77,10.35,7.38,-44.6875,-92.4375,0.75,-0.654541,-0.30584717,-0.4338379,-0.53826904,2026-05-18T18:10:59.835989,2,Device1,1
153351,3027463,1779111116930,-0.31,10.42,7.12,-51.125,-127.875,-5.625,-0.6660156,-0.31072998,-0.41638184,-0.5352783,2026-05-18T18:10:59.835989,2,Device1,1
153353,3027488,1779111116931,1.81,10.18,5.99,-53.5,-162.6875,-25.125,-0.6888428,-0.321167,-0.38354492,-0.5246582,2026-05-18T18:10:59.835989,2,Device1,1
153355,3027511,1779111116958,5.01,10.85,4.92,-56.0,-138.625,-42.75,-0.70440674,-0.32513428,-0.36358643,-0.515625,2026-05-18T18:10:59.835989,2,Device1,1
153358,3027530,1779111116991,4.43,10.84,4.64,-63.0,-104.6875,-58.4375,-0.72039795,-0.3250122,-0.34710693,-0.50494385,2026-05-18T18:10:59.835989,2,Device1,1
153359,3027571,1779111117025,1.88,10.06,6.12,-70.375,-108.6875,-99.625,-0.75354004,-0.31530762,-0.31958008,-0.4802246,2026-05-18T18:10:59.835989,2,Device1,1
153362,3027553,1779111117025,3.09,10.46,5.27,-68.75,-96.75,-80.5625,-0.7359009,-0.3206787,-0.3334961,-0.49438477,2026-05-18T18:10:59.835989,2,Device1,1
153365,3027589,1779111117082,-0.5,8.99,5.39,-69.125,-150.3125,-116.875,-0.7734375,-0.31140137,-0.30218506,-0.46209717,2026-05-18T18:10:59.835989,2,Device1,1
153367,3027609,1779111117083,-0.04,9.04,5.12,-66.5,-207.25,-133.1875,-0.79626465,-0.31085205,-0.27825928,-0.43811035,2026-05-18T18:10:59.835989,2,Device1,1
153369,3027631,1779111117121,1.4,9.16,4.74,-65.875,-245.875,-148.25,-0.8206787,-0.3125,-0.24859619,-0.40875244,2026-05-18T18:10:59.835989,2,Device1,1
153370,3027659,1779111117121,2.11,9.16,4.74,-66.0,-247.3125,-163.4375,-0.84454346,-0.31347656,-0.2175293,-0.3756714,2026-05-18T18:10:59.835989,2,Device1,1
153371,3027670,1779111117132,2.29,8.52,6.54,-67.4375,-208.5,-176.8125,-0.86621094,-0.31115723,-0.1907959,-0.3413086,2026-05-18T18:10:59.835989,2,Device1,1
153375,3027698,1779111117173,1.84,7.74,6.94,-69.25,-143.5625,-191.625,-0.88500977,-0.30413818,-0.17297363,-0.30718994,2026-05-18T18:10:59.835989,2,Device1,1
153376,3027716,1779111117173,0.54,6.7,7.34,-74.8125,-69.4375,-209.125,-0.90856934,-0.2831421,-0.1673584,-0.2574463,2026-05-18T18:10:59.835989,2,Device1,1
153378,3027735,1779111117205,-0.09,5.94,7.03,-84.75,-4.1875,-232.5,-0.91552734,-0.27337646,-0.17071533,-0.24066162,2026-05-18T18:10:59.835989,2,Device1,1
153380,3027757,1779111117206,-0.99,2.64,5.17,-98.375,30.75,-267.9375,-0.92871094,-0.25006104,-0.18231201,-0.2043457,2026-05-18T18:10:59.835989,2,Device1,1
153382,3027771,1779111117234,-2.08,-0.84,3.86,-114.8125,-0.9375,-301.0625,-0.9418335,-0.22277832,-0.19268799,-0.1619873,2026-05-18T18:10:59.835989,2,Device1,1
153384,3027800,1779111117258,-4.69,-9.61,8.8,-119.5625,-78.6875,-315.4375,-0.9610596,-0.18109131,-0.18920898,-0.0881958,2026-05-18T18:10:59.835989,2,Device1,1
153385,3027815,1779111117259,-4.75,-14.67,12.59,-103.375,-40.5,-333.4375,-0.96533203,-0.1675415,-0.19018555,-0.06213379,2026-05-18T18:10:59.835989,2,Device1,1
153388,3027838,1779111117288,-12.71,-13.22,6.78,-50.3125,-88.1875,-309.1875,-0.97210693,-0.13439941,-0.19152832,0.01751709,2026-05-18T18:10:59.835989,2,Device1,1
153390,3027859,1779111117320,-9.91,-6.04,9.31,-32.5625,-212.3125,-212.9375,-0.9770508,-0.11981201,-0.16571045,0.059936523,2026-05-18T18:10:59.835989,2,Device1,1
153391,3027879,1779111117322,-6.81,-2.27,6.92,-10.875,-193.3125,-54.75,-0.9813843,-0.11199951,-0.13421631,0.07977295,2026-05-18T18:10:59.835989,2,Device1,1
153394,3027904,1779111117349,4.12,0.28,7.22,-13.1875,-70.625,41.0,-0.9841919,-0.109375,-0.11584473,0.07696533,2026-05-18T18:10:59.835989,2,Device1,1
153396,3027919,1779111117381,-4.28,-2.33,8.41,-13.375,38.875,19.375,-0.9841919,-0.10809326,-0.1194458,0.07366943,2026-05-18T18:10:59.835989,2,Device1,1
153398,3027945,1779111117410,-0.24,0.49,7.39,-2.625,-45.8125,-28.75,-0.9844971,-0.10668945,-0.11621094,0.07696533,2026-05-18T18:10:59.835989,2,Device1,1
153400,3027961,1779111117410,-0.07,-1.18,8.03,-8.4375,-44.6875,-33.625,-0.9851074,-0.10406494,-0.10821533,0.083740234,2026-05-18T18:10:59.835989,2,Device1,1
153402,3027986,1779111117443,-2.96,-0.67,10.17,-8.0,12.875,-14.8125,-0.98498535,-0.10229492,-0.10852051,0.08685303,2026-05-18T18:11:00.447134,2,Device1,1
153405,3028009,1779111117474,-3.79,-0.6,10.36,-5.0625,33.4375,0.875,-0.9844971,-0.101745605,-0.11376953,0.08654785,2026-05-18T18:11:00.447134,2,Device1,1
153406,3028023,1779111117475,-2.42,-0.21,9.84,-0.25,24.4375,2.25,-0.98413086,-0.10180664,-0.11853027,0.083862305,2026-05-18T18:11:00.447134,2,Device1,1
153408,3028047,1779111117504,-2.39,0.17,9.16,0.5625,21.375,-3.1875,-0.9834595,-0.10217285,-0.12390137,0.08392334,2026-05-18T18:11:00.447134,2,Device1,1
153411,3028067,1779111117530,-3.27,-0.22,9.66,-2.25,20.375,-0.5625,-0.9830322,-0.10205078,-0.1274414,0.08331299,2026-05-18T18:11:00.447134,2,Device1,1
153412,3028088,1779111117531,-2.8,-0.5,9.61,0.3125,27.625,3.375,-0.98254395,-0.10241699,-0.1315918,0.08239746,2026-05-18T18:11:00.447134,2,Device1,1
153414,3028111,1779111117558,-3.2,-0.14,9.17,2.75,38.25,5.5625,-0.9817505,-0.10333252,-0.13745117,0.08099365,2026-05-18T18:11:00.447134,2,Device1,1
153416,3028127,1779111117589,-3.19,-0.17,9.23,3.0625,42.0,6.6875,-0.9807739,-0.10467529,-0.14440918,0.0791626,2026-05-18T18:11:00.447134,2,Device1,1
153417,3028148,1779111117590,-3.91,-0.38,9.18,4.3125,42.5,14.0,-0.97979736,-0.10614014,-0.15136719,0.07647705,2026-05-18T18:11:00.447134,2,Device1,1
153419,3028170,1779111117622,-4.25,-0.31,9.2,5.3125,38.0,18.0625,-0.9790039,-0.10809326,-0.15692139,0.07244873,2026-05-18T18:11:00.447134,2,Device1,1
153423,3028188,1779111117651,-4.11,-0.12,9.05,6.5625,36.0,34.625,-0.9783325,-0.1104126,-0.16204834,0.06677246,2026-05-18T18:11:00.447134,2,Device1,1
153426,3028213,1779111117684,-4.26,-0.28,8.93,9.875,36.8125,47.375,-0.9776001,-0.11352539,-0.1671753,0.059020996,2026-05-18T18:11:00.447134,2,Device1,1
153428,3028227,1779111117717,-3.71,-0.07,9.57,12.4375,39.0625,51.75,-0.9769287,-0.11413574,-0.1741333,0.047912598,2026-05-18T18:11:00.447134,2,Device1,1
153429,3028268,1779111117717,-3.93,-0.61,9.11,30.8125,70.25,74.4375,-0.9729614,-0.12683105,-0.19171143,0.022888184,2026-05-18T18:11:00.447134,2,Device1,1
153430,3028248,1779111117718,-3.59,-0.27,9.64,23.125,59.125,63.25,-0.9752197,-0.11987305,-0.18200684,0.037353516,2026-05-18T18:11:00.447134,2,Device1,1
153432,3028293,1779111117742,-4.45,-0.98,8.84,38.875,76.6875,92.1875,-0.96984863,-0.13598633,-0.2020874,0.008117676,2026-05-18T18:11:00.447134,2,Device1,1
153435,3028310,1779111117777,-4.56,-1.11,7.88,42.75,87.0625,112.0,-0.96588135,-0.14660645,-0.21325684,-0.010009766,2026-05-18T18:11:00.447134,2,Device1,1
153437,3028356,1779111117801,-5.74,-0.34,8.26,45.5,108.6875,136.5625,-0.9541626,-0.16912842,-0.24090576,-0.05456543,2026-05-18T18:11:00.447134,2,Device1,1
153438,3028336,1779111117801,-5.18,-0.52,8.05,42.25,103.875,123.75,-0.9606323,-0.15740967,-0.2267456,-0.03173828,2026-05-18T18:11:00.447134,2,Device1,1
153441,3028370,1779111117831,-5.29,1.02,7.58,48.0625,105.0625,141.375,-0.9466553,-0.18151855,-0.25439453,-0.07836914,2026-05-18T18:11:00.447134,2,Device1,1
153442,3028397,1779111117859,-5.53,1.67,6.99,44.25,95.125,139.9375,-0.93878174,-0.19342041,-0.26623535,-0.101745605,2026-05-18T18:11:00.447134,2,Device1,1
153443,3028411,1779111117859,-6.37,2.57,7.41,39.3125,80.25,144.3125,-0.93084717,-0.20477295,-0.2755127,-0.12536621,2026-05-18T18:11:00.447134,2,Device1,1
153447,3028431,1779111117889,-5.79,3.06,7.58,38.6875,54.0,143.375,-0.9229126,-0.21557617,-0.28137207,-0.15020752,2026-05-18T18:11:00.447134,2,Device1,1
153448,3028457,1779111117918,-5.18,3.68,7.72,39.5,29.9375,142.375,-0.9124756,-0.23364258,-0.28222656,-0.18200684,2026-05-18T18:11:00.447134,2,Device1,1
153449,3028475,1779111117919,-4.0,3.78,7.79,43.1875,19.625,133.375,-0.9088745,-0.23956299,-0.28198242,-0.19244385,2026-05-18T18:11:00.447134,2,Device1,1
153452,3028496,1779111117951,-3.01,5.26,6.69,49.875,23.25,127.875,-0.9014282,-0.2524414,-0.28149414,-0.2107544,2026-05-18T18:11:00.447134,2,Device1,1
153454,3028511,1779111117983,-3.1,6.06,6.33,44.1875,38.75,125.3125,-0.8930664,-0.26409912,-0.28308105,-0.22918701,2026-05-18T18:11:00.447134,2,Device1,1
153458,3028539,1779111118016,-4.14,5.08,6.49,38.3125,54.125,127.0,-0.883728,-0.27404785,-0.28649902,-0.24859619,2026-05-18T18:11:00.447134,2,Device1,1
153459,3028559,1779111118016,-3.4,4.8,6.29,44.8125,50.75,122.8125,-0.86846924,-0.28894043,-0.29229736,-0.27716064,2026-05-18T18:11:00.447134,2,Device1,1
153460,3028597,1779111118042,-2.38,6.35,6.03,37.375,46.25,112.3125,-0.84832764,-0.30725098,-0.2982788,-0.31134033,2026-05-18T18:11:00.447134,2,Device1,1
153461,3028578,1779111118042,-3.03,7.26,6.17,40.5625,47.25,114.1875,-0.8583374,-0.29852295,-0.2956543,-0.29449463,2026-05-18T18:11:00.447134,2,Device1,1
153465,3028613,1779111118068,-2.38,5.46,5.4,37.1875,41.6875,118.625,-0.84313965,-0.31176758,-0.2991333,-0.3199463,2026-05-18T18:11:00.447134,2,Device1,1
153466,3028637,1779111118100,-1.6,6.39,4.93,39.5625,38.4375,117.75,-0.8265381,-0.32525635,-0.30181885,-0.34631348,2026-05-18T18:11:00.447134,2,Device1,1
153470,3028659,1779111118131,-1.61,7.35,5.55,38.3125,44.1875,107.1875,-0.8156128,-0.3336792,-0.30413818,-0.36187744,2026-05-18T18:11:00.447134,2,Device1,1
153471,3028676,1779111118131,-1.01,8.01,5.36,35.6875,43.9375,104.375,-0.81036377,-0.3375244,-0.30517578,-0.36914062,2026-05-18T18:11:00.447134,2,Device1,1
153472,3028699,1779111118160,-0.38,7.62,5.23,30.375,52.25,103.8125,-0.79351807,-0.34674072,-0.30999756,-0.39245605,2026-05-18T18:11:00.447134,2,Device1,1
153473,3028717,1779111118161,-0.37,7.32,5.04,29.0,69.75,101.3125,-0.7810669,-0.35083008,-0.3157959,-0.40875244,2026-05-18T18:11:00.447134,2,Device1,1
153477,3028743,1779111118193,-1.0,7.7,5.08,29.5,68.25,93.0,-0.7689209,-0.35479736,-0.32159424,-0.42370605,2026-05-18T18:11:00.447134,2,Device1,1
153478,3028762,1779111118217,-1.03,7.95,4.92,28.875,55.4375,89.125,-0.75738525,-0.35925293,-0.32574463,-0.4373169,2026-05-18T18:11:00.447134,2,Device1,1
153482,3028780,1779111118250,-0.15,7.97,4.64,24.5625,57.1875,82.9375,-0.7459717,-0.36273193,-0.32989502,-0.4506836,2026-05-18T18:11:00.447134,2,Device1,1
153483,3028807,1779111118250,-0.27,8.16,5.12,21.5625,66.75,76.375,-0.7349243,-0.36486816,-0.3348999,-0.4631958,2026-05-18T18:11:00.447134,2,Device1,1
153484,3028820,1779111118278,-1.03,8.69,5.45,18.8125,65.0625,74.6875,-0.7235718,-0.36590576,-0.3404541,-0.47613525,2026-05-18T18:11:00.447134,2,Device1,1
153488,3028862,1779111118311,0.48,8.15,5.44,16.9375,44.125,78.8125,-0.7027588,-0.37078857,-0.34539795,-0.49938965,2026-05-18T18:11:00.447134,2,Device1,1
153489,3028847,1779111118311,-0.58,8.21,5.28,15.5,50.8125,78.9375,-0.7130127,-0.36791992,-0.3435669,-0.4880371,2026-05-18T18:11:00.447134,2,Device1,1
153490,3028887,1779111118338,0.79,8.06,4.74,18.0,52.75,72.9375,-0.69244385,-0.37298584,-0.34802246,-0.51013184,2026-05-18T18:11:00.447134,2,Device1,1
153494,3028907,1779111118369,0.75,7.88,4.52,18.3125,72.25,66.5625,-0.68133545,-0.37329102,-0.3531494,-0.52130127,2026-05-18T18:11:00.447134,2,Device1,1
153495,3028922,1779111118370,0.12,7.84,4.89,18.3125,89.125,60.625,-0.6694946,-0.371521,-0.36065674,-0.5325928,2026-05-18T18:11:00.447134,2,Device1,1
153497,3028951,1779111118401,-1.36,8.2,4.03,18.4375,97.1875,58.5,-0.6508179,-0.36688232,-0.3737793,-0.5496216,2026-05-18T18:11:00.447134,2,Device1,1
153501,3028969,1779111118433,-0.72,8.37,4.12,19.75,78.0625,53.0625,-0.63934326,-0.3647461,-0.3812256,-0.5593872,2026-05-18T18:11:00.447134,2,Device1,1
153500,3028989,1779111118434,2.51,9.86,4.0,17.8125,87.0,46.5625,-0.6281738,-0.3619995,-0.38885498,-0.56848145,2026-05-18T18:11:00.447134,2,Device1,1
153502,3029013,1779111118467,2.23,9.98,4.66,13.8125,121.125,37.6875,-0.61590576,-0.35528564,-0.3996582,-0.5784912,2026-05-18T18:11:00.447134,2,Device1,1
153504,3029049,1779111118491,0.98,9.62,5.82,17.5625,97.4375,20.6875,-0.59246826,-0.33917236,-0.42333984,-0.59558105,2026-05-18T18:11:00.447134,2,Device1,1
153505,3029029,1779111118491,0.62,9.61,5.86,14.875,124.9375,29.25,-0.60321045,-0.34631348,-0.41235352,-0.5883789,2026-05-18T18:11:00.447134,2,Device1,1
153508,3029073,1779111118526,2.65,10.09,6.32,17.4375,74.0,5.125,-0.58551025,-0.33416748,-0.43206787,-0.598999,2026-05-18T18:11:00.447134,2,Device1,1
153511,3029092,1779111118549,2.16,10.56,7.38,15.6875,40.125,-12.125,-0.58166504,-0.32989502,-0.43920898,-0.59991455,2026-05-18T18:11:00.447134,2,Device1,1
153513,3029112,1779111118577,1.34,10.47,6.45,12.1875,-9.6875,-24.9375,-0.5830078,-0.3295288,-0.4418335,-0.5969238,2026-05-18T18:11:00.447134,2,Device1,1
153514,3029133,1779111118579,0.0,10.5,5.7,4.75,-35.875,-34.875,-0.5883789,-0.33093262,-0.44128418,-0.59124756,2026-05-18T18:11:00.447134,2,Device1,1
153517,3029157,1779111118608,-0.29,10.38,5.54,-7.875,-50.0,-35.75,-0.5957031,-0.3324585,-0.43811035,-0.58532715,2026-05-18T18:11:00.447134,2,Device1,1
153519,3029172,1779111118638,-0.68,10.28,5.65,-22.5625,-56.375,-29.625,-0.6055908,-0.3348999,-0.43151855,-0.57873535,2026-05-18T18:11:00.447134,2,Device1,1
153522,3029197,1779111118670,-0.29,10.28,6.35,-35.5,-66.0,-20.0,-0.6141968,-0.3361206,-0.4230957,-0.5751343,2026-05-18T18:11:00.447134,2,Device1,1
153523,3029216,1779111118671,1.19,10.54,6.72,-44.0625,-77.0,-13.875,-0.623291,-0.3378296,-0.41210938,-0.57232666,2026-05-18T18:11:00.447134,2,Device1,1
153525,3029239,1779111118711,2.4,10.66,6.32,-52.25,-101.25,-16.3125,-0.64038086,-0.34277344,-0.39056396,-0.5656128,2026-05-18T18:11:00.447134,2,Device1,1
153528,3029262,1779111118728,3.94,10.41,6.28,-55.625,-117.125,-28.75,-0.65338135,-0.34594727,-0.3743286,-0.5597534,2026-05-18T18:11:00.447134,2,Device1,1
153529,3029276,1779111118730,4.01,10.57,6.32,-56.5625,-121.375,-36.0,-0.661438,-0.34802246,-0.36541748,-0.5548096,2026-05-18T18:11:00.447134,2,Device1,1
153531,3029300,1779111118765,4.6,10.39,6.06,-57.5,-128.875,-51.75,-0.68530273,-0.35144043,-0.34002686,-0.5396118,2026-05-18T18:11:00.447134,2,Device1,1
153532,3029316,1779111118765,5.61,10.81,5.84,-58.4375,-133.0625,-72.125,-0.6940918,-0.35205078,-0.3317871,-0.5331421,2026-05-18T18:11:00.447134,2,Device1,1
153535,3029339,1779111118790,4.59,10.7,5.63,-66.625,-103.25,-104.3125,-0.7227173,-0.34924316,-0.31018066,-0.5093994,2026-05-18T18:11:00.447134,2,Device1,1
153537,3029360,1779111118825,2.5,9.57,6.05,-70.5625,-96.0,-122.8125,-0.74176025,-0.34259033,-0.2993164,-0.49273682,2026-05-18T18:11:00.447134,2,Device1,1
153539,3029384,1779111118850,2.52,9.37,6.04,-69.0,-113.0,-143.1875,-0.7632446,-0.33624268,-0.2871704,-0.47106934,2026-05-18T18:11:00.447134,2,Device1,1
153542,3029404,1779111118852,2.19,9.44,6.13,-65.375,-128.75,-158.125,-0.78497314,-0.32995605,-0.27435303,-0.4468994,2026-05-18T18:11:00.447134,2,Device1,1
153543,3029420,1779111118888,1.08,9.36,5.99,-65.5625,-139.75,-171.75,-0.8070679,-0.3236084,-0.26037598,-0.41967773,2026-05-18T18:11:00.447134,2,Device1,1
153546,3029447,1779111118918,0.55,8.9,5.82,-65.9375,-140.1875,-187.125,-0.82922363,-0.31628418,-0.24633789,-0.38952637,2026-05-18T18:11:00.447134,2,Device1,1
153547,3029462,1779111118918,-0.41,8.69,5.56,-68.875,-131.4375,-203.5625,-0.85076904,-0.30700684,-0.23358154,-0.3569336,2026-05-18T18:11:00.447134,2,Device1,1
153549,3029487,1779111118941,-1.44,8.22,4.99,-77.1875,-126.6875,-217.875,-0.87176514,-0.29522705,-0.22174072,-0.32208252,2026-05-18T18:11:00.447134,2,Device1,1
153552,3029511,1779111118969,-1.02,6.96,4.61,-94.0,-135.125,-233.1875,-0.9030762,-0.27148438,-0.20129395,-0.2649536,2026-05-18T18:11:00.447134,2,Device1,1
153553,3029525,1779111118970,-0.25,3.43,4.6,-114.4375,-138.3125,-251.9375,-0.9133911,-0.2614746,-0.19384766,-0.2444458,2026-05-18T18:11:00.447134,2,Device1,1
153555,3029549,1779111118999,0.05,0.12,4.57,-133.3125,-126.5625,-273.9375,-0.9421997,-0.22424316,-0.1739502,-0.17828369,2026-05-18T18:11:00.447134,2,Device1,1
153558,3029569,1779111119031,0.51,-5.81,4.72,-150.8125,-107.9375,-313.1875,-0.9585571,-0.19439697,-0.16308594,-0.12945557,2026-05-18T18:11:00.447134,2,Device1,1
153560,3029593,1779111119059,-0.09,-9.98,5.98,-157.4375,-82.25,-340.8125,-0.9714966,-0.16156006,-0.15557861,-0.07635498,2026-05-18T18:11:00.447134,2,Device1,1
153561,3029609,1779111119060,-3.52,-18.12,11.6,-139.4375,-18.6875,-347.5625,-0.9789429,-0.12854004,-0.15704346,-0.021972656,2026-05-18T18:11:00.447134,2,Device1,1
153564,3029630,1779111119090,-17.14,-16.66,14.05,-71.6875,-46.3125,-302.6875,-0.9812622,-0.10479736,-0.15905762,0.028808594,2026-05-18T18:11:00.447134,2,Device1,1
153566,3029670,1779111119120,1.73,3.06,1.07,-8.8125,-242.1875,64.6875,-0.99072266,-0.09625244,-0.07055664,0.06488037,2026-05-18T18:11:00.447134,2,Device1,1
153567,3029661,1779111119120,-29.72,-7.68,10.03,16.5625,-295.8125,-131.875,-0.98535156,-0.09753418,-0.124694824,0.06317139,2026-05-18T18:11:00.447134,2,Device1,1
153570,3029694,1779111119150,20.12,0.66,6.98,-37.8125,-28.4375,36.375,-0.99298096,-0.09136963,-0.047302246,0.05834961,2026-05-18T18:11:00.447134,2,Device1,1
153572,3029710,1779111119154,-0.45,-4.62,7.99,-10.9375,132.125,11.4375,-0.99212646,-0.08886719,-0.07043457,0.05340576,2026-05-18T18:11:00.447134,2,Device1,1
153573,3029731,1779111119187,-0.56,1.98,10.74,2.3125,-4.0,-16.25,-0.99176025,-0.08935547,-0.06964111,0.060058594,2026-05-18T18:11:00.447134,2,Device1,1
153576,3029756,1779111119209,0.0,-2.19,8.72,-21.1875,-95.75,-27.25,-0.9926758,-0.08496094,-0.052856445,0.06726074,2026-05-18T18:11:00.447134,2,Device1,1
153578,3029773,1779111119244,1.51,-1.49,10.26,-12.0,-13.1875,-0.5625,-0.99316406,-0.08190918,-0.046936035,0.06878662,2026-05-18T18:11:00.447134,2,Device1,1
153579,3029797,1779111119244,0.58,-0.78,10.93,-0.5,78.3125,4.3125,-0.9927368,-0.082092285,-0.056518555,0.06732178,2026-05-18T18:11:00.447134,2,Device1,1
153582,3029813,1779111119268,-4.2,-0.78,10.66,5.3125,103.5,1.5625,-0.99157715,-0.083984375,-0.07373047,0.06549072,2026-05-18T18:11:00.447134,2,Device1,1
153584,3029834,1779111119301,-4.42,-0.78,10.52,7.0625,50.375,-1.625,-0.9906006,-0.085876465,-0.08465576,0.064819336,2026-05-18T18:11:00.447134,2,Device1,1
153585,3029856,1779111119301,-3.23,-0.88,10.14,1.8125,25.5,5.5625,-0.99017334,-0.08679199,-0.08935547,0.06402588,2026-05-18T18:11:00.447134,2,Device1,1
153588,3029876,1779111119329,-3.46,-1.05,9.75,-0.3125,20.125,21.25,-0.9901123,-0.08709717,-0.09289551,0.059020996,2026-05-18T18:11:00.447134,2,Device1,1
153590,3029897,1779111119359,-1.45,-1.1,9.58,1.1875,25.875,24.3125,-0.98999023,-0.08782959,-0.09631348,0.054626465,2026-05-18T18:11:00.447134,2,Device1,1
153591,3029913,1779111119360,-1.54,-1.11,9.35,3.4375,50.0,20.8125,-0.9893799,-0.08905029,-0.10333252,0.05041504,2026-05-18T18:11:00.447134,2,Device1,1
153594,3029939,1779111119389,-2.82,-1.18,9.58,6.5625,54.625,20.3125,-0.9880371,-0.091796875,-0.1159668,0.043518066,2026-05-18T18:11:00.447134,2,Device1,1
153596,3029957,1779111119419,-3.96,-1.32,9.72,9.6875,35.3125,25.625,-0.98773193,-0.09301758,-0.11871338,0.04119873,2026-05-18T18:11:00.447134,2,Device1,1
153597,3029976,1779111119419,-3.15,-1.33,9.67,14.875,17.0625,38.25,-0.9873047,-0.09613037,-0.12145996,0.035339355,2026-05-18T18:11:00.447134,2,Device1,1
153600,3030000,1779111119450,-2.03,-1.5,8.92,18.875,32.375,52.0625,-0.98638916,-0.10223389,-0.12652588,0.02331543,2026-05-18T18:11:00.447134,2,Device1,1
153602,3030022,1779111119478,-2.56,-1.64,8.96,22.25,46.625,59.6875,-0.9852295,-0.10723877,-0.1326294,0.013549805,2026-05-18T18:11:00.447134,2,Device1,1
153603,3030040,1779111119479,-2.92,-1.34,8.78,26.625,51.9375,67.375,-0.9837036,-0.113098145,-0.13989258,0.002380371,2026-05-18T18:11:00.447134,2,Device1,1
153606,3030065,1779111119509,-3.25,-1.39,8.69,30.375,56.8125,77.375,-0.98168945,-0.11975098,-0.14764404,-0.010437012,2026-05-18T18:11:00.447134,2,Device1,1
153608,3030080,1779111119538,-3.51,-1.05,9.38,34.625,60.625,86.9375,-0.979187,-0.12713623,-0.1560669,-0.025634766,2026-05-18T18:11:00.447134,2,Device1,1
153611,3030110,1779111119569,-4.32,-0.49,8.92,35.8125,62.1875,98.25,-0.9761963,-0.13531494,-0.16436768,-0.041809082,2026-05-18T18:11:00.447134,2,Device1,1
153612,3030120,1779111119570,-4.43,-0.57,9.02,36.0625,57.625,109.8125,-0.9725342,-0.14318848,-0.17236328,-0.062683105,2026-05-18T18:11:00.447134,2,Device1,1
153614,3030143,1779111119606,-4.91,-0.66,8.56,42.1875,46.375,120.875,-0.9686279,-0.15270996,-0.17797852,-0.08215332,2026-05-18T18:11:00.447134,2,Device1,1
153617,3030163,1779111119640,-4.4,-0.11,8.31,46.0625,37.8125,125.3125,-0.96429443,-0.16333008,-0.18182373,-0.10217285,2026-05-18T18:11:00.447134,2,Device1,1
153619,3030188,1779111119668,-3.49,0.99,9.19,47.5,38.25,123.625,-0.9593506,-0.17407227,-0.18536377,-0.12237549,2026-05-18T18:11:00.447134,2,Device1,1
153620,3030208,1779111119668,-3.42,2.01,9.22,47.25,47.8125,122.0,-0.95373535,-0.18457031,-0.19000244,-0.14196777,2026-05-18T18:11:00.447134,2,Device1,1
153622,3030223,1779111119692,-4.53,3.1,8.75,45.3125,46.3125,123.9375,-0.94750977,-0.19464111,-0.19506836,-0.16223145,2026-05-18T18:11:00.447134,2,Device1,1
153623,3030248,1779111119692,-4.15,2.93,8.64,43.25,30.625,126.0625,-0.94122314,-0.20477295,-0.19769287,-0.18200684,2026-05-18T18:11:00.447134,2,Device1,1
153626,3030263,1779111119725,-3.31,2.76,8.79,43.25,38.125,128.6875,-0.9343872,-0.21484375,-0.19989014,-0.2020874,2026-05-18T18:11:00.447134,2,Device1,1
153628,3030292,1779111119750,-2.55,3.33,8.87,47.4375,57.625,126.5625,-0.92144775,-0.22918701,-0.20922852,-0.23382568,2026-05-18T18:11:00.447134,2,Device1,1
153631,3030313,1779111119783,-3.21,4.28,8.04,52.625,76.8125,128.25,-0.9113159,-0.23852539,-0.21850586,-0.25476074,2026-05-18T18:11:00.447134,2,Device1,1
153632,3030326,1779111119783,-2.75,4.89,7.86,46.5,78.4375,124.5625,-0.90618896,-0.24267578,-0.22302246,-0.26501465,2026-05-18T18:11:00.447134,2,Device1,1
153636,3030350,1779111119838,-3.53,4.74,8.12,43.3125,73.9375,131.0625,-0.88983154,-0.25457764,-0.2354126,-0.29663086,2026-05-18T18:11:00.447134,2,Device1,1
153637,3030371,1779111119839,-2.78,4.5,7.76,50.5,67.75,129.8125,-0.8768921,-0.2625122,-0.24359131,-0.32061768,2026-05-18T18:11:00.447134,2,Device1,1
153638,3030395,1779111119839,-2.49,5.75,6.71,57.3125,59.625,127.0,-0.864624,-0.27270508,-0.25,-0.33984375,2026-05-18T18:11:00.447134,2,Device1,1
153640,3030410,1779111119868,-1.98,6.36,6.51,48.875,59.8125,120.5,-0.85253906,-0.28198242,-0.25585938,-0.35803223,2026-05-18T18:11:00.447134,2,Device1,1
153643,3030430,1779111119898,-1.09,6.81,6.03,36.1875,69.875,123.25,-0.8399658,-0.28863525,-0.262146,-0.3774414,2026-05-18T18:11:00.447134,2,Device1,1
153644,3030456,1779111119899,-1.16,6.27,5.88,32.3125,77.5625,124.0,-0.8267822,-0.29382324,-0.2689209,-0.3972168,2026-05-18T18:11:00.447134,2,Device1,1
153646,3030474,1779111119928,-1.56,6.48,5.76,32.375,68.0625,120.5,-0.81347656,-0.2989502,-0.2750244,-0.41619873,2026-05-18T18:11:00.447134,2,Device1,1
153649,3030496,1779111119958,-1.0,7.63,5.37,28.4375,72.625,119.25,-0.7999878,-0.3034668,-0.28076172,-0.43481445,2026-05-18T18:11:00.447134,2,Device1,1
153650,3030514,1779111119959,-1.11,6.83,6.71,34.8125,67.875,115.125,-0.7863159,-0.3081665,-0.28649902,-0.4524536,2026-05-18T18:11:00.447134,2,Device1,1
153652,3030538,1779111119988,0.69,7.09,6.14,48.75,62.625,110.375,-0.7720337,-0.31463623,-0.29260254,-0.46832275,2026-05-18T18:11:00.447134,2,Device1,1
153654,3030576,1779111120020,-0.57,7.65,5.53,45.3125,95.5625,108.5625,-0.7401123,-0.32385254,-0.3104248,-0.5009155,2026-05-18T18:11:00.447134,2,Device1,1
153656,3030558,1779111120021,0.92,7.93,4.61,49.1875,80.6875,108.0,-0.756958,-0.32055664,-0.30041504,-0.48376465,2026-05-18T18:11:00.447134,2,Device1,1
153658,3030601,1779111120058,-1.47,7.33,5.66,47.375,72.625,109.3125,-0.71624756,-0.33203125,-0.32104492,-0.5231323,2026-05-18T18:11:00.447134,2,Device1,1
153661,3030616,1779111120083,-0.81,7.0,5.73,54.9375,43.875,105.1875,-0.70880127,-0.33624268,-0.32318115,-0.52923584,2026-05-18T18:11:00.447134,2,Device1,1
153663,3030641,1779111120107,1.46,7.54,4.9,54.6875,56.9375,96.0625,-0.6868286,-0.34814453,-0.33032227,-0.54589844,2026-05-18T18:11:00.447134,2,Device1,1
153664,3030661,1779111120108,3.35,8.04,3.36,45.8125,111.8125,84.1875,-0.6702881,-0.34954834,-0.34075928,-0.55895996,2026-05-18T18:11:00.447134,2,Device1,1
153667,3030681,1779111120142,1.01,8.11,3.53,31.625,159.4375,73.6875,-0.6520386,-0.34368896,-0.35638428,-0.5741577,2026-05-18T18:11:00.447134,2,Device1,1
153669,3030701,1779111120175,-1.67,7.16,5.06,21.8125,151.6875,63.3125,-0.6345215,-0.33477783,-0.3720703,-0.5889282,2026-05-18T18:11:00.447134,2,Device1,1
153671,3030723,1779111120176,-1.75,7.31,6.29,22.9375,88.375,53.625,-0.6209717,-0.33007812,-0.3824463,-0.5993042,2026-05-18T18:11:00.447134,2,Device1,1
153673,3030748,1779111120202,0.58,7.68,6.18,28.25,46.875,45.25,-0.61102295,-0.3305664,-0.38812256,-0.6055908,2026-05-18T18:11:00.447134,2,Device1,1
153674,3030763,1779111120227,5.19,8.96,3.59,28.6875,81.0,29.8125,-0.6015625,-0.3289795,-0.39605713,-0.61083984,2026-05-18T18:11:00.447134,2,Device1,1
153676,3030784,1779111120229,3.49,9.24,3.72,19.4375,165.625,10.625,-0.5886841,-0.3170166,-0.4121704,-0.6189575,2026-05-18T18:11:00.447134,2,Device1,1
153679,3030808,1779111120258,-4.67,7.86,5.88,20.0,171.8125,0.0,-0.5748291,-0.3001709,-0.4315796,-0.6270752,2026-05-18T18:11:00.447134,2,Device1,1
153681,3030827,1779111120291,-3.49,8.06,5.71,32.625,78.0625,-5.3125,-0.56573486,-0.2915039,-0.44500732,-0.6300049,2026-05-18T18:11:00.447134,2,Device1,1
153684,3030872,1779111120322,2.64,9.57,4.52,26.5,109.5625,-28.1875,-0.55303955,-0.27624512,-0.47375488,-0.62719727,2026-05-18T18:11:00.447134,2,Device1,1
153685,3030851,1779111120322,3.4,9.43,3.66,35.625,68.125,-22.8125,-0.5595093,-0.28656006,-0.45977783,-0.6272583,2026-05-18T18:11:00.447134,2,Device1,1
153687,3030890,1779111120357,-1.68,9.3,5.41,23.25,106.9375,-28.5625,-0.5471802,-0.265625,-0.48657227,-0.62713623,2026-05-18T18:11:00.447134,2,Device1,1
153690,3030912,1779111120380,-2.38,9.34,5.86,20.0,40.75,-33.1875,-0.5453491,-0.25927734,-0.49499512,-0.62475586,2026-05-18T18:11:00.447134,2,Device1,1
153691,3030928,1779111120380,-1.84,9.32,6.92,17.875,20.3125,-34.375,-0.54608154,-0.25769043,-0.49761963,-0.6227417,2026-05-18T18:11:00.447134,2,Device1,1
153693,3030955,1779111120412,-0.72,10.15,6.99,4.5625,-10.9375,-36.0625,-0.5516968,-0.25567627,-0.5005493,-0.61621094,2026-05-18T18:11:00.447134,2,Device1,1
153695,3030972,1779111120439,0.21,10.25,7.16,-7.25,9.1875,-38.0625,-0.5552368,-0.2514038,-0.50219727,-0.6134033,2026-05-18T18:11:00.447134,2,Device1,1
153696,3030995,1779111120440,-2.92,10.08,7.04,-18.0,-4.6875,-36.0625,-0.5595703,-0.2467041,-0.5022583,-0.6113281,2026-05-18T18:11:00.447134,2,Device1,1
153699,3031015,1779111120481,-2.53,9.94,7.31,-22.9375,-18.0,-34.625,-0.56604004,-0.24383545,-0.49884033,-0.609375,2026-05-18T18:11:00.447134,2,Device1,1
153701,3031032,1779111120503,-1.94,9.96,6.53,-38.625,-35.125,-26.375,-0.57476807,-0.24285889,-0.49230957,-0.60687256,2026-05-18T18:11:00.447134,2,Device1,1
153702,3031055,1779111120503,-1.69,9.94,6.56,-43.3125,-38.9375,-25.5,-0.58251953,-0.24053955,-0.48468018,-0.6065674,2026-05-18T18:11:00.447134,2,Device1,1
153705,3031071,1779111120528,-1.75,9.87,6.96,-58.25,-54.125,-19.25,-0.5913086,-0.23883057,-0.4746704,-0.6066284,2026-05-18T18:11:00.447134,2,Device1,1
153707,3031098,1779111120561,-1.17,9.82,7.28,-66.875,-84.875,-16.75,-0.6017456,-0.2387085,-0.46099854,-0.6069336,2026-05-18T18:11:00.447134,2,Device1,1
153708,3031116,1779111120561,0.44,9.82,6.77,-74.8125,-114.375,-17.8125,-0.61468506,-0.2409668,-0.44317627,-0.6063843,2026-05-18T18:11:00.447134,2,Device1,1
153711,3031132,1779111120590,1.65,9.72,6.64,-82.0625,-127.4375,-26.0,-0.6298218,-0.24383545,-0.42260742,-0.6043701,2026-05-18T18:11:00.447134,2,Device1,1
153713,3031162,1779111120620,2.0,9.46,6.76,-88.75,-121.125,-36.0625,-0.6454468,-0.24468994,-0.40179443,-0.6017456,2026-05-18T18:11:00.447134,2,Device1,1
153714,3031172,1779111120620,1.59,9.61,7.45,-91.8125,-114.5,-45.6875,-0.6638794,-0.24511719,-0.3805542,-0.5952759,2026-05-18T18:11:00.447134,2,Device1,1
153717,3031192,1779111120656,1.88,9.54,8.27,-91.0,-123.375,-55.1875,-0.6804199,-0.24346924,-0.35992432,-0.5900879,2026-05-18T18:11:00.447134,2,Device1,1
153718,3031215,1779111120680,3.19,9.94,8.37,-87.3125,-149.25,-70.0,-0.6989746,-0.24334717,-0.3373413,-0.5817871,2026-05-18T18:11:00.447134,2,Device1,1
153722,3031240,1779111120715,6.0,10.87,8.95,-85.125,-171.625,-91.5,-0.73132324,-0.2453003,-0.29974365,-0.56134033,2026-05-18T18:11:00.447134,2,Device1,1
153723,3031262,1779111120716,6.83,11.53,9.11,-82.8125,-180.1875,-117.0625,-0.743042,-0.24572754,-0.28704834,-0.55236816,2026-05-18T18:11:00.447134,2,Device1,1
153727,3031280,1779111120767,6.45,11.44,8.99,-81.75,-184.3125,-141.625,-0.7799072,-0.24536133,-0.24920654,-0.519104,2026-05-18T18:11:00.447134,2,Device1,1
153728,3031303,1779111120769,6.44,12.7,8.42,-79.75,-193.1875,-164.0625,-0.79260254,-0.24505615,-0.23632812,-0.5058594,2026-05-18T18:11:00.447134,2,Device1,1
153729,3031320,1779111120774,8.18,12.85,7.29,-83.25,-206.9375,-196.6875,-0.8331299,-0.24267578,-0.19555664,-0.45690918,2026-05-18T18:11:00.447134,2,Device1,1
153731,3031343,1779111120798,9.06,11.37,7.31,-85.625,-219.9375,-242.625,-0.8623047,-0.23828125,-0.1687622,-0.41375732,2026-05-18T18:11:00.447134,2,Device1,1
153734,3031361,1779111120830,5.37,7.97,5.18,-102.5625,-215.4375,-326.6875,-0.892334,-0.22912598,-0.14367676,-0.36132812,2026-05-18T18:11:00.447134,2,Device1,1
153735,3031381,1779111120832,0.45,0.68,5.81,-124.0625,-244.625,-372.75,-0.92211914,-0.21679688,-0.11383057,-0.29956055,2026-05-18T18:11:00.447134,2,Device1,1
153738,3031405,1779111120859,-0.98,-7.36,5.63,-153.625,-206.0,-388.375,-0.9484863,-0.19683838,-0.085998535,-0.23284912,2026-05-18T18:11:00.447134,2,Device1,1
153740,3031425,1779111120899,-7.93,-22.97,9.61,-156.375,-159.8125,-369.875,-0.96710205,-0.17272949,-0.06939697,-0.17358398,2026-05-18T18:11:00.447134,2,Device1,1
153741,3031441,1779111120899,-11.34,-26.58,7.36,-87.5,-72.25,-251.25,-0.9777832,-0.15466309,-0.060424805,-0.12823486,2026-05-18T18:11:00.447134,2,Device1,1
153743,3031462,1779111120924,-8.54,-6.84,8.42,-39.4375,-19.6875,-175.3125,-0.9829712,-0.14550781,-0.05895996,-0.09527588,2026-05-18T18:11:00.447134,2,Device1,1
153747,3031486,1779111120982,-9.36,-4.18,8.25,-37.625,-9.6875,-131.8125,-0.98583984,-0.13842773,-0.057922363,-0.07458496,2026-05-18T18:11:00.447134,2,Device1,1
153749,3031502,1779111120982,-2.4,-4.7,8.04,-24.6875,-40.75,-25.125,-0.9873657,-0.13360596,-0.051757812,-0.06750488,2026-05-18T18:11:00.447134,2,Device1,1
153751,3031542,1779111121014,-0.64,-0.56,8.82,1.375,63.375,18.5,-0.98687744,-0.13171387,-0.059143066,-0.07183838,2026-05-18T18:11:00.447134,2,Device1,1
153753,3031525,1779111121014,-0.99,-2.21,9.22,-5.3125,11.0625,8.5,-0.98760986,-0.13208008,-0.05078125,-0.067871094,2026-05-18T18:11:00.447134,2,Device1,1
153752,3031562,1779111121015,-1.69,0.9,9.72,-0.1875,91.75,14.0625,-0.9857178,-0.13098145,-0.07312012,-0.076416016,2026-05-18T18:11:00.447134,2,Device1,1
153755,3031582,1779111121040,-3.95,0.43,10.74,-1.25,80.0625,9.4375,-0.9844971,-0.12976074,-0.0871582,-0.07965088,2026-05-18T18:11:00.447134,2,Device1,1
153758,3031602,1779111121068,-3.3,0.21,10.24,4.0,32.5,2.875,-0.9837036,-0.1296997,-0.09454346,-0.08135986,2026-05-18T18:11:00.447134,2,Device1,1
153759,3031622,1779111121070,-2.62,-0.04,9.79,5.875,6.0625,3.0,-0.98309326,-0.13024902,-0.09661865,-0.08477783,2026-05-18T18:11:00.447134,2,Device1,1
153761,3031646,1779111121098,-2.54,-0.21,9.56,3.6875,11.5625,7.4375,-0.9827881,-0.13098145,-0.098083496,-0.0859375,2026-05-18T18:11:00.447134,2,Device1,1
153764,3031665,1779111121128,-2.82,-0.13,9.55,2.8125,24.875,11.125,-0.98217773,-0.13128662,-0.101501465,-0.08807373,2026-05-18T18:11:00.447134,2,Device1,1
153767,3031694,1779111121162,-3.23,-0.35,9.71,2.4375,30.5,12.625,-0.9814453,-0.13146973,-0.10614014,-0.09075928,2026-05-18T18:11:00.447134,2,Device1,1
153768,3031711,1779111121163,-3.37,-0.83,9.59,4.8125,34.0,14.1875,-0.9800415,-0.13208008,-0.11413574,-0.0949707,2026-05-18T18:11:00.447134,2,Device1,1
153770,3031729,1779111121199,-3.68,-1.32,9.46,6.4375,28.9375,18.125,-0.9795532,-0.13250732,-0.11639404,-0.09674072,2026-05-18T18:11:00.447134,2,Device1,1
153772,3031772,1779111121222,-4.22,-1.43,10.06,5.5,17.9375,40.0,-0.97680664,-0.13562012,-0.12384033,-0.11004639,2026-05-18T18:11:00.447134,2,Device1,1
153773,3031751,1779111121222,-3.28,-1.04,9.72,5.4375,22.25,28.8125,-0.97802734,-0.13433838,-0.12133789,-0.103515625,2026-05-18T18:11:00.447134,2,Device1,1
153776,3031791,1779111121251,-3.7,-1.66,9.71,9.0625,12.0625,50.375,-0.97546387,-0.13769531,-0.124938965,-0.11804199,2026-05-18T18:11:00.447134,2,Device1,1
153778,3031814,1779111121278,-3.31,-1.31,9.4,11.9375,16.1875,54.8125,-0.9735718,-0.14068604,-0.12701416,-0.1274414,2026-05-18T18:11:00.447134,2,Device1,1
153779,3031832,1779111121280,-3.27,-0.89,9.1,19.625,27.1875,62.6875,-0.9711914,-0.14447021,-0.13018799,-0.13781738,2026-05-18T18:11:00.447134,2,Device1,1
153782,3031857,1779111121308,-2.75,-0.13,8.93,23.4375,38.375,67.0,-0.9682617,-0.14880371,-0.13482666,-0.14898682,2026-05-18T18:11:00.447134,2,Device1,1
153784,3031871,1779111121340,-2.68,0.23,9.33,26.125,49.5625,68.6875,-0.9644165,-0.15332031,-0.14276123,-0.16107178,2026-05-18T18:11:00.447134,2,Device1,1
153786,3031891,1779111121342,-3.48,0.63,8.4,27.875,78.5625,73.9375,-0.95977783,-0.15759277,-0.15374756,-0.17419434,2026-05-18T18:11:00.447134,2,Device1,1
153789,3031916,1779111121399,-4.62,1.16,8.57,25.1875,82.25,78.8125,-0.9544678,-0.16137695,-0.16583252,-0.18829346,2026-05-18T18:11:00.447134,2,Device1,1
153791,3031932,1779111121402,-4.68,1.41,8.59,25.0625,62.375,81.3125,-0.9491577,-0.16546631,-0.17547607,-0.20245361,2026-05-18T18:11:00.447134,2,Device1,1
153793,3031952,1779111121435,-3.66,2.15,8.12,25.0625,38.375,84.3125,-0.94415283,-0.17047119,-0.18096924,-0.2163086,2026-05-18T18:11:00.447134,2,Device1,1
153794,3031972,1779111121435,-2.9,2.32,7.98,27.1875,34.3125,82.6875,-0.9388428,-0.17578125,-0.18518066,-0.23095703,2026-05-18T18:11:00.447134,2,Device1,1
153796,3031999,1779111121466,-2.75,2.04,7.78,30.5625,46.4375,82.5,-0.9333496,-0.18139648,-0.19055176,-0.2442627,2026-05-18T18:11:00.447134,2,Device1,1
153797,3032016,1779111121466,-2.46,3.07,7.95,29.25,72.75,78.0625,-0.92681885,-0.18591309,-0.19970703,-0.25793457,2026-05-18T18:11:00.447134,2,Device1,1
153800,3032042,1779111121498,-2.89,4.8,8.02,22.0,91.625,73.8125,-0.91534424,-0.18847656,-0.21929932,-0.28027344,2026-05-18T18:11:00.447134,2,Device1,1
153802,3032065,1779111121520,-3.89,4.57,7.83,18.6875,98.0,75.9375,-0.90740967,-0.1897583,-0.23242188,-0.29431152,2026-05-18T18:11:00.447134,2,Device1,1
153805,3032083,1779111121549,-4.41,4.28,7.77,22.375,72.4375,75.0625,-0.89959717,-0.19213867,-0.24304199,-0.30786133,2026-05-18T18:11:00.447134,2,Device1,1
153806,3032105,1779111121549,-4.0,4.69,7.86,22.1875,64.1875,73.5625,-0.89245605,-0.1953125,-0.25097656,-0.3199463,2026-05-18T18:11:00.447134,2,Device1,1
153808,3032121,1779111121578,-3.22,4.6,7.89,26.75,49.75,71.3125,-0.88500977,-0.19903564,-0.25793457,-0.3326416,2026-05-18T18:11:00.447134,2,Device1,1
153811,3032145,1779111121609,-2.78,4.18,7.48,35.75,54.1875,68.75,-0.8775635,-0.2041626,-0.2652588,-0.34326172,2026-05-18T18:11:00.447134,2,Device1,1
153812,3032164,1779111121610,-2.61,5.16,7.32,35.9375,59.0625,66.5625,-0.869751,-0.20861816,-0.27416992,-0.35339355,2026-05-18T18:11:00.447134,2,Device1,1
153814,3032180,1779111121638,-2.44,5.67,7.6,30.25,69.3125,59.9375,-0.8656006,-0.21002197,-0.2791748,-0.35876465,2026-05-18T18:11:00.447134,2,Device1,1
153816,3032203,1779111121669,-3.06,4.86,7.42,25.0625,81.25,57.6875,-0.8530884,-0.21246338,-0.2956543,-0.37371826,2026-05-18T18:11:00.447134,2,Device1,1
153817,3032223,1779111121671,-3.42,4.68,7.41,32.8125,78.25,59.875,-0.8432617,-0.2140503,-0.307312,-0.38549805,2026-05-18T18:11:00.447134,2,Device1,1
153820,3032247,1779111121708,-3.84,5.32,6.97,38.625,71.1875,59.125,-0.83447266,-0.21850586,-0.31732178,-0.3939209,2026-05-18T18:11:00.447134,2,Device1,1
153822,3032263,1779111121732,-2.97,6.07,6.04,45.25,46.25,52.375,-0.8265381,-0.22436523,-0.32531738,-0.40081787,2026-05-18T18:11:00.447134,2,Device1,1
153825,3032289,1779111121759,-2.41,5.86,5.6,47.25,46.0,46.5625,-0.8189697,-0.23046875,-0.33288574,-0.40667725,2026-05-18T18:11:00.447134,2,Device1,1
153826,3032307,1779111121759,-2.25,6.06,5.51,48.875,67.0,39.5625,-0.81073,-0.23535156,-0.34295654,-0.4119873,2026-05-18T18:11:00.447134,2,Device1,1
153828,3032323,1779111121788,-2.91,6.68,6.19,48.5625,88.1875,34.5625,-0.8010864,-0.23803711,-0.35650635,-0.41778564,2026-05-18T18:11:00.447134,2,Device1,1
153831,3032349,1779111121819,-4.56,7.1,6.45,49.25,89.375,33.8125,-0.7911377,-0.24023438,-0.37078857,-0.42297363,2026-05-18T18:11:00.447134,2,Device1,1
153832,3032365,1779111121819,-4.62,6.78,5.91,51.875,67.1875,34.625,-0.78186035,-0.24389648,-0.38287354,-0.42730713,2026-05-18T18:11:00.447134,2,Device1,1
153833,3032394,1779111121849,-3.16,7.01,5.19,54.5,42.625,32.9375,-0.7734375,-0.24920654,-0.3920288,-0.43133545,2026-05-18T18:11:00.447134,2,Device1,1
153836,3032410,1779111121881,-2.15,7.55,5.29,53.4375,42.5,25.875,-0.7626343,-0.25720215,-0.40490723,-0.43389893,2026-05-18T18:11:00.447134,2,Device1,1
153838,3032428,1779111121882,-2.66,8.19,5.85,46.75,66.3125,18.3125,-0.7579346,-0.25775146,-0.41088867,-0.43615723,2026-05-18T18:11:00.447134,2,Device1,1
153840,3032452,1779111121909,-4.05,7.93,6.18,39.8125,77.6875,15.5,-0.74957275,-0.25842285,-0.42303467,-0.43859863,2026-05-18T18:11:00.447134,2,Device1,1
153841,3032468,1779111121909,-4.45,7.51,5.7,36.125,59.5,13.4375,-0.7421875,-0.25927734,-0.43341064,-0.44055176,2026-05-18T18:11:00.447134,2,Device1,1
153844,3032494,1779111121943,-4.01,7.51,5.65,33.1875,35.3125,10.125,-0.7340088,-0.26171875,-0.4437256,-0.44250488,2026-05-18T18:11:00.447134,2,Device1,1
153846,3032512,1779111121972,-4.17,8.26,6.19,27.5,10.6875,9.0,-0.730896,-0.2647705,-0.4473877,-0.44213867,2026-05-18T18:11:00.447134,2,Device1,1
153849,3032558,1779111122008,-2.35,8.42,5.86,14.9375,-1.6875,3.1875,-0.7283325,-0.2709961,-0.44903564,-0.44091797,2026-05-18T18:11:00.447134,2,Device1,1
153850,3032531,1779111122008,-3.65,8.5,5.74,21.0,-4.625,9.5625,-0.729187,-0.26837158,-0.44848633,-0.44171143,2026-05-18T18:11:00.447134,2,Device1,1
153852,3032571,1779111122034,-2.95,8.18,6.52,12.8125,1.4375,0.375,-0.7281494,-0.27282715,-0.44989014,-0.43933105,2026-05-18T18:11:00.447134,2,Device1,1
153855,3032614,1779111122065,-1.59,9.01,4.74,12.875,-5.375,-6.0,-0.7284546,-0.2767334,-0.45043945,-0.43572998,2026-05-18T18:11:00.447134,2,Device1,1
153856,3032592,1779111122065,-2.92,8.49,6.06,14.0,-9.1875,-2.1875,-0.7281494,-0.2748413,-0.45013428,-0.4376831,2026-05-18T18:11:00.447134,2,Device1,1
153858,3032634,1779111122089,-1.79,9.13,5.12,7.8125,12.5625,-10.3125,-0.7281494,-0.2765503,-0.45251465,-0.4342041,2026-05-18T18:11:00.447134,2,Device1,1
153861,3032664,1779111122118,-2.82,9.37,4.88,1.9375,18.375,-10.9375,-0.72735596,-0.27478027,-0.4555664,-0.43347168,2026-05-18T18:11:00.447134,2,Device1,1
153863,3032680,1779111122152,-3.3,9.23,4.62,-3.875,7.75,-9.5625,-0.727417,-0.27294922,-0.45721436,-0.43286133,2026-05-18T18:11:00.447134,2,Device1,1
153865,3032698,1779111122152,-3.6,9.02,4.65,-7.3125,-16.6875,-7.5,-0.72906494,-0.2722168,-0.45587158,-0.4319458,2026-05-18T18:11:00.447134,2,Device1,1
153867,3032718,1779111122182,-2.89,9.05,4.65,-9.875,-46.5,-6.25,-0.7329712,-0.2734375,-0.45062256,-0.42999268,2026-05-18T18:11:00.447134,2,Device1,1
153869,3032741,1779111122208,-1.92,9.37,4.57,-14.875,-64.0625,-4.8125,-0.7414551,-0.27716064,-0.43804932,-0.4260254,2026-05-18T18:11:00.447134,2,Device1,1
153870,3032762,1779111122208,-1.14,9.48,4.85,-16.8125,-61.5,-5.375,-0.74432373,-0.2781372,-0.43371582,-0.42486572,2026-05-18T18:11:00.447134,2,Device1,1
153873,3032780,1779111122238,-0.99,9.48,4.87,-22.0,-45.8125,-6.1875,-0.7505493,-0.27978516,-0.42541504,-0.4212036,2026-05-18T18:11:00.447134,2,Device1,1
153875,3032801,1779111122270,-1.55,9.51,4.84,-28.4375,-28.125,-5.5,-0.7562866,-0.2769165,-0.41711426,-0.42108154,2026-05-18T18:11:00.447134,2,Device1,1
153876,3032816,1779111122270,-2.24,9.46,4.86,-35.9375,-25.0,-4.5,-0.7581787,-0.27539062,-0.41430664,-0.4215088,2026-05-18T18:11:00.447134,2,Device1,1
153879,3032846,1779111122309,-2.11,9.67,5.15,-43.0625,-30.625,-0.8125,-0.7653198,-0.27105713,-0.4033203,-0.42211914,2026-05-18T18:11:00.447134,2,Device1,1
153881,3032863,1779111122334,-1.89,9.62,5.57,-54.6875,-40.375,6.625,-0.7699585,-0.26733398,-0.3942871,-0.42456055,2026-05-18T18:11:00.447134,2,Device1,1
153882,3032881,1779111122335,-1.6,9.71,5.67,-58.5,-44.5625,8.6875,-0.776001,-0.26428223,-0.38287354,-0.42590332,2026-05-18T18:11:00.447134,2,Device1,1
153886,3032903,1779111122391,-1.02,9.88,5.76,-66.375,-46.625,13.0625,-0.7808838,-0.25952148,-0.3713379,-0.4300537,2026-05-18T18:11:00.447134,2,Device1,1
153888,3032920,1779111122391,-0.95,9.85,5.83,-73.5625,-41.1875,17.0,-0.7832031,-0.25671387,-0.36553955,-0.43255615,2026-05-18T18:11:00.447134,2,Device1,1
153890,3032942,1779111122418,-1.16,9.65,6.1,-81.25,-36.0625,20.0,-0.79034424,-0.24749756,-0.34783936,-0.43951416,2026-05-18T18:11:00.447134,2,Device1,1
153891,3032966,1779111122419,-1.22,9.31,6.51,-84.625,-44.875,20.125,-0.79473877,-0.24053955,-0.335083,-0.4453125,2026-05-18T18:11:00.447134,2,Device1,1
153893,3032986,1779111122449,-0.81,9.42,6.89,-87.5625,-59.5,19.0,-0.80078125,-0.23486328,-0.31970215,-0.44873047,2026-05-18T18:11:00.447134,2,Device1,1
153896,3033011,1779111122479,-0.16,9.21,7.32,-90.125,-72.5,18.25,-0.80963135,-0.22619629,-0.29351807,-0.45526123,2026-05-18T18:11:00.447134,2,Device1,1
153897,3033029,1779111122480,-0.17,9.1,7.94,-91.375,-96.0,14.6875,-0.8138428,-0.22442627,-0.28277588,-0.45532227,2026-05-18T18:11:00.447134,2,Device1,1
153899,3033053,1779111122510,0.77,9.27,8.64,-89.125,-110.375,11.9375,-0.8209839,-0.22052002,-0.26104736,-0.45739746,2026-05-18T18:11:00.447134,2,Device1,1
153902,3033070,1779111122543,2.6,9.66,8.53,-76.375,-156.0625,1.0,-0.829895,-0.22125244,-0.23400879,-0.45562744,2026-05-18T18:11:01.037491,2,Device1,1
153903,3033091,1779111122543,6.51,10.84,7.85,-70.75,-163.4375,-15.8125,-0.84503174,-0.22381592,-0.19238281,-0.44592285,2026-05-18T18:11:01.037491,2,Device1,1
153905,3033114,1779111122568,9.77,12.74,8.11,-74.5625,-140.25,-42.0625,-0.8555298,-0.22088623,-0.17010498,-0.4362793,2026-05-18T18:11:01.037491,2,Device1,1
153908,3033131,1779111122601,8.67,12.53,8.87,-81.3125,-90.625,-72.3125,-0.86779785,-0.21343994,-0.15429688,-0.42132568,2026-05-18T18:11:01.037491,2,Device1,1
153909,3033152,1779111122601,7.71,11.88,8.51,-77.375,-80.25,-107.3125,-0.8808594,-0.20532227,-0.14074707,-0.40264893,2026-05-18T18:11:01.037491,2,Device1,1
153912,3033170,1779111122634,7.38,11.69,7.63,-69.25,-93.1875,-153.125,-0.8882446,-0.20147705,-0.13409424,-0.3904419,2026-05-18T18:11:01.037491,2,Device1,1
153914,3033213,1779111122667,-0.94,6.19,8.04,-64.9375,-144.4375,-245.8125,-0.9299927,-0.18109131,-0.099365234,-0.3040161,2026-05-18T18:11:01.037491,2,Device1,1
153915,3033193,1779111122669,0.1,7.23,8.32,-67.6875,-99.5625,-211.625,-0.91259766,-0.18823242,-0.1159668,-0.34387207,2026-05-18T18:11:01.037491,2,Device1,1
153918,3033229,1779111122693,0.07,2.54,5.6,-72.125,-182.125,-258.4375,-0.9389038,-0.17785645,-0.08709717,-0.2814331,2026-05-18T18:11:01.037491,2,Device1,1
153919,3033255,1779111122718,-0.95,-2.53,4.42,-134.25,-250.0,-331.25,-0.9656372,-0.16149902,-0.03466797,-0.20062256,2026-05-18T18:11:01.037491,2,Device1,1
153921,3033269,1779111122719,1.94,-10.28,5.08,-157.8125,-232.4375,-356.125,-0.9738159,-0.15142822,-0.0178833,-0.1687622,2026-05-18T18:11:01.037491,2,Device1,1
153923,3033292,1779111122748,2.52,-20.34,8.66,-196.4375,-147.875,-336.625,-0.99072266,-0.10913086,0.01159668,-0.08026123,2026-05-18T18:11:01.037491,2,Device1,1
153927,3033315,1779111122779,-3.78,-27.87,8.14,-101.125,-10.4375,-277.25,-0.99554443,-0.08843994,0.010009766,-0.031188965,2026-05-18T18:11:01.037491,2,Device1,1
153926,3033333,1779111122780,-10.32,-19.45,10.53,-39.3125,-89.375,-214.0625,-0.996521,-0.08068848,0.018432617,0.008544922,2026-05-18T18:11:01.037491,2,Device1,1
153929,3033357,1779111122809,0.37,-7.83,8.54,-26.5,-52.625,-107.1875,-0.9961548,-0.076171875,0.028808594,0.032409668,2026-05-18T18:11:01.037491,2,Device1,1
153931,3033394,1779111122839,1.15,-2.09,9.43,-28.75,42.0625,5.9375,-0.99664307,-0.067993164,0.019958496,0.04095459,2026-05-18T18:11:01.037491,2,Device1,1
153932,3033375,1779111122839,0.6,-4.25,7.69,-23.4375,-5.1875,-61.625,-0.9961548,-0.072387695,0.026855469,0.042053223,2026-05-18T18:11:01.037491,2,Device1,1
153935,3033417,1779111122868,0.18,-2.89,10.18,-20.5,1.625,-5.125,-0.99694824,-0.06414795,0.017150879,0.041137695,2026-05-18T18:11:01.037491,2,Device1,1
153937,3033441,1779111122905,2.79,-1.95,9.6,-10.375,-29.125,-12.375,-0.9968262,-0.06121826,0.022583008,0.046081543,2026-05-18T18:11:01.037491,2,Device1,1
153940,3033482,1779111122938,1.68,-0.83,9.46,-4.5,43.0,10.5625,-0.9970703,-0.05999756,0.011230469,0.045654297,2026-05-18T18:11:01.037491,2,Device1,1
153941,3033464,1779111122938,1.37,-1.42,9.83,-5.4375,9.8125,1.1875,-0.9968262,-0.060791016,0.021728516,0.045959473,2026-05-18T18:11:01.037491,2,Device1,1
153944,3033504,1779111122967,-0.06,-1.58,10.16,-4.8125,60.1875,5.5,-0.9972534,-0.059692383,0.0017700195,0.044189453,2026-05-18T18:11:01.037491,2,Device1,1
153946,3033521,1779111122990,-0.58,-1.2,10.06,-2.8125,39.0625,3.6875,-0.9972534,-0.059570312,-0.0015258789,0.043701172,2026-05-18T18:11:01.037491,2,Device1,1
153948,3033542,1779111122992,0.28,-1.2,9.29,-2.25,13.375,1.4375,-0.99731445,-0.0592041,-0.005493164,0.04272461,2026-05-18T18:11:01.037491,2,Device1,1
153950,3033563,1779111123020,1.14,-1.58,9.26,-2.4375,10.25,2.0625,-0.99731445,-0.059020996,-0.0063476562,0.04248047,2026-05-18T18:11:01.037491,2,Device1,1
153951,3033577,1779111123020,0.59,-1.63,9.35,0.375,22.25,8.3125,-0.9973755,-0.059020996,-0.009521484,0.0413208,2026-05-18T18:11:01.037491,2,Device1,1
153953,3033606,1779111123050,0.49,-1.36,9.22,2.375,31.75,14.6875,-0.9973755,-0.059631348,-0.014343262,0.038757324,2026-05-18T18:11:01.037491,2,Device1,1
153956,3033618,1779111123081,0.12,-1.44,9.31,2.75,38.5625,18.9375,-0.99731445,-0.06036377,-0.020446777,0.03540039,2026-05-18T18:11:01.037491,2,Device1,1
153958,3033647,1779111123111,-0.29,-1.53,9.44,4.0625,45.0625,23.5,-0.9971924,-0.06188965,-0.031188965,0.028686523,2026-05-18T18:11:01.037491,2,Device1,1
153960,3033664,1779111123111,-1.56,-1.74,9.79,8.4375,37.875,35.625,-0.9970093,-0.0635376,-0.03765869,0.022644043,2026-05-18T18:11:01.037491,2,Device1,1
153962,3033679,1779111123145,-1.4,-1.84,9.79,10.6875,31.3125,39.625,-0.99694824,-0.06463623,-0.040039062,0.01940918,2026-05-18T18:11:01.037491,2,Device1,1
153966,3033722,1779111123177,-1.07,-2.21,9.42,19.3125,36.875,57.125,-0.99591064,-0.07305908,-0.05255127,-0.0043945312,2026-05-18T18:11:01.037491,2,Device1,1
153965,3033707,1779111123178,-1.08,-2.06,9.6,15.75,27.1875,48.5,-0.996521,-0.06921387,-0.046325684,0.0068359375,2026-05-18T18:11:01.037491,2,Device1,1
153968,3033743,1779111123205,-1.06,-2.41,9.61,24.625,63.4375,71.8125,-0.9949341,-0.07751465,-0.061584473,-0.016479492,2026-05-18T18:11:01.037491,2,Device1,1
153971,3033766,1779111123233,-1.61,-2.64,9.79,30.0,77.875,82.8125,-0.9934082,-0.08294678,-0.07324219,-0.030639648,2026-05-18T18:11:01.037491,2,Device1,1
153970,3033786,1779111123234,-2.48,-2.71,9.66,34.375,78.625,91.4375,-0.991272,-0.08929443,-0.08532715,-0.045715332,2026-05-18T18:11:01.037491,2,Device1,1
153974,3033815,1779111123261,-3.17,-2.29,9.45,32.1875,76.75,96.9375,-0.9887085,-0.09564209,-0.09710693,-0.06237793,2026-05-18T18:11:01.037491,2,Device1,1
153976,3033830,1779111123288,-3.5,-1.87,10.01,28.875,68.75,102.0,-0.9857178,-0.10144043,-0.10772705,-0.08013916,2026-05-18T18:11:01.037491,2,Device1,1
153978,3033852,1779111123319,-4.06,-1.09,10.25,27.875,50.4375,105.25,-0.9810791,-0.11035156,-0.11798096,-0.10687256,2026-05-18T18:11:01.037491,2,Device1,1
153980,3033872,1779111123320,-3.84,-1.22,10.11,30.1875,27.1875,107.3125,-0.9779053,-0.1171875,-0.12023926,-0.12463379,2026-05-18T18:11:01.037491,2,Device1,1
153982,3033894,1779111123351,-2.89,-1.01,9.86,32.8125,10.25,106.875,-0.97631836,-0.12084961,-0.12042236,-0.13323975,2026-05-18T18:11:01.037491,2,Device1,1
153985,3033912,1779111123382,-2.83,0.0,9.91,33.5625,7.0625,105.6875,-0.97106934,-0.13208008,-0.12017822,-0.1585083,2026-05-18T18:11:01.037491,2,Device1,1
153986,3033932,1779111123382,-2.3,0.65,9.6,33.125,12.5,103.375,-0.96917725,-0.13568115,-0.1204834,-0.16662598,2026-05-18T18:11:01.037491,2,Device1,1
153988,3033951,1779111123413,-2.07,0.99,9.42,34.5625,22.5,104.1875,-0.9649048,-0.14282227,-0.12225342,-0.18334961,2026-05-18T18:11:01.037491,2,Device1,1
153989,3033967,1779111123413,-2.25,1.98,9.77,33.375,34.5625,102.25,-0.960022,-0.1494751,-0.12597656,-0.20019531,2026-05-18T18:11:01.037491,2,Device1,1
153992,3033995,1779111123438,-2.28,2.27,9.61,34.0,35.1875,99.8125,-0.95495605,-0.15588379,-0.13031006,-0.2163086,2026-05-18T18:11:01.037491,2,Device1,1
153994,3034017,1779111123469,-1.95,1.94,8.54,41.6875,30.75,101.4375,-0.9463501,-0.16748047,-0.13616943,-0.24053955,2026-05-18T18:11:01.037491,2,Device1,1
153997,3034035,1779111123499,-1.66,2.88,8.67,46.6875,44.125,96.1875,-0.9399414,-0.17565918,-0.1416626,-0.25610352,2026-05-18T18:11:01.037491,2,Device1,1
153998,3034057,1779111123500,-1.15,4.76,8.99,44.5,52.6875,91.8125,-0.9331665,-0.18237305,-0.14996338,-0.27105713,2026-05-18T18:11:01.037491,2,Device1,1
154000,3034070,1779111123528,-1.17,4.63,9.09,46.125,71.3125,88.9375,-0.92944336,-0.18548584,-0.1552124,-0.27856445,2026-05-18T18:11:01.037491,2,Device1,1
154003,3034094,1779111123560,-1.36,4.45,8.0,53.875,78.5,89.3125,-0.9170532,-0.19580078,-0.17297363,-0.3012085,2026-05-18T18:11:01.037491,2,Device1,1
154004,3034116,1779111123560,-1.53,4.99,7.83,48.8125,60.125,84.5,-0.9089966,-0.20257568,-0.18267822,-0.31506348,2026-05-18T18:11:01.037491,2,Device1,1
154005,3034132,1779111123588,-1.64,4.65,8.29,49.9375,52.125,85.25,-0.9049072,-0.20629883,-0.18664551,-0.32208252,2026-05-18T18:11:01.037491,2,Device1,1
154009,3034153,1779111123628,-0.81,4.75,7.67,58.3125,48.6875,84.5625,-0.892334,-0.21936035,-0.19818115,-0.34106445,2026-05-18T18:11:01.037491,2,Device1,1
154010,3034175,1779111123630,-0.49,6.07,7.3,54.0625,57.625,77.75,-0.8833618,-0.22705078,-0.20715332,-0.3538208,2026-05-18T18:11:01.037491,2,Device1,1
154012,3034197,1779111123655,-0.61,6.2,7.46,48.75,62.0,76.1875,-0.87475586,-0.23291016,-0.21643066,-0.36572266,2026-05-18T18:11:01.037491,2,Device1,1
154015,3034216,1779111123688,-0.57,5.42,7.44,44.5625,62.5625,71.75,-0.8661499,-0.23852539,-0.2255249,-0.3768921,2026-05-18T18:11:01.037491,2,Device1,1
154016,3034233,1779111123688,-1.04,4.98,7.07,63.6875,52.625,65.375,-0.8572998,-0.24633789,-0.2345581,-0.38653564,2026-05-18T18:11:01.037491,2,Device1,1
154018,3034259,1779111123709,-0.58,6.35,6.13,69.625,40.4375,54.625,-0.8487549,-0.2557373,-0.24298096,-0.39385986,2026-05-18T18:11:01.037491,2,Device1,1
154021,3034278,1779111123739,0.01,6.74,6.06,63.75,42.375,46.6875,-0.8410034,-0.2644043,-0.2510376,-0.39978027,2026-05-18T18:11:01.037491,2,Device1,1
154022,3034293,1779111123739,-0.22,6.31,6.14,60.6875,54.3125,43.6875,-0.8329468,-0.27148438,-0.260437,-0.40576172,2026-05-18T18:11:01.037491,2,Device1,1
154024,3034316,1779111123767,-0.99,5.65,6.37,65.8125,64.8125,39.25,-0.82440186,-0.2779541,-0.27172852,-0.41149902,2026-05-18T18:11:01.037491,2,Device1,1
154027,3034336,1779111123803,-0.86,5.72,6.34,69.875,67.0,35.0,-0.8156738,-0.28485107,-0.28442383,-0.41552734,2026-05-18T18:11:01.037491,2,Device1,1
154028,3034360,1779111123828,-1.1,6.59,5.71,78.125,58.5,25.3125,-0.8069458,-0.29241943,-0.2970581,-0.41845703,2026-05-18T18:11:01.037491,2,Device1,1
154030,3034376,1779111123830,-1.35,6.41,5.35,81.75,43.6875,24.4375,-0.798584,-0.30114746,-0.30804443,-0.4202881,2026-05-18T18:11:01.037491,2,Device1,1
154033,3034394,1779111123859,-0.92,6.36,5.41,85.5625,48.6875,18.1875,-0.79034424,-0.31030273,-0.31915283,-0.42095947,2026-05-18T18:11:01.037491,2,Device1,1
154034,3034419,1779111123860,-0.45,7.13,5.58,88.6875,67.25,11.0625,-0.7813721,-0.3182373,-0.33306885,-0.4210205,2026-05-18T18:11:01.037491,2,Device1,1
154036,3034438,1779111123889,-0.95,7.79,5.08,86.625,81.875,7.3125,-0.7714844,-0.32458496,-0.34918213,-0.42138672,2026-05-18T18:11:01.037491,2,Device1,1
154039,3034458,1779111123920,-2.39,8.2,4.18,80.9375,81.875,9.0,-0.76135254,-0.32983398,-0.36535645,-0.42199707,2026-05-18T18:11:01.037491,2,Device1,1
154040,3034474,1779111123924,-2.65,8.61,4.32,73.625,57.4375,7.8125,-0.7514038,-0.33459473,-0.37927246,-0.42370605,2026-05-18T18:11:01.037491,2,Device1,1
154042,3034498,1779111123953,-0.42,10.84,4.9,61.0625,35.5625,3.375,-0.74487305,-0.340271,-0.38867188,-0.4222412,2026-05-18T18:11:01.037491,2,Device1,1
154045,3034517,1779111123979,0.37,11.97,5.13,44.8125,37.4375,4.25,-0.7393799,-0.34417725,-0.39642334,-0.42156982,2026-05-18T18:11:01.037491,2,Device1,1
154046,3034537,1779111123979,-0.03,12.35,5.63,25.375,49.25,3.375,-0.7344971,-0.34509277,-0.40393066,-0.42218018,2026-05-18T18:11:01.037491,2,Device1,1
154048,3034559,1779111124008,-0.98,11.88,5.93,9.1875,41.4375,2.875,-0.7304077,-0.34368896,-0.41027832,-0.42437744,2026-05-18T18:11:01.037491,2,Device1,1
154050,3034577,1779111124039,-1.17,11.73,5.96,-2.125,8.5,0.9375,-0.729187,-0.3427124,-0.41229248,-0.42523193,2026-05-18T18:11:01.037491,2,Device1,1
154053,3034603,1779111124070,-0.29,11.46,5.81,-11.625,-21.5,-0.5,-0.7307739,-0.34259033,-0.40979004,-0.42504883,2026-05-18T18:11:01.037491,2,Device1,1
154055,3034619,1779111124071,0.01,10.92,5.55,-19.5,-27.375,-1.375,-0.73376465,-0.3423462,-0.40515137,-0.42456055,2026-05-18T18:11:01.037491,2,Device1,1
154057,3034644,1779111124099,-0.27,10.53,5.19,-25.125,-17.6875,-2.3125,-0.7373657,-0.34136963,-0.40045166,-0.42352295,2026-05-18T18:11:01.037491,2,Device1,1
154059,3034664,1779111124130,-1.21,9.86,4.8,-31.375,-4.25,-3.5,-0.74102783,-0.3363037,-0.3961792,-0.42523193,2026-05-18T18:11:01.037491,2,Device1,1
154060,3034686,1779111124133,-1.94,9.24,4.31,-33.1875,-5.25,-2.9375,-0.74432373,-0.33312988,-0.39239502,-0.42547607,2026-05-18T18:11:01.037491,2,Device1,1
154063,3034704,1779111124166,-2.58,8.65,4.01,-35.5625,-28.3125,-0.1875,-0.74786377,-0.33026123,-0.38702393,-0.42645264,2026-05-18T18:11:01.037491,2,Device1,1
154067,3034725,1779111124220,-2.12,8.52,4.15,-35.1875,-41.4375,2.1875,-0.7524414,-0.3289795,-0.37921143,-0.42633057,2026-05-18T18:11:01.037491,2,Device1,1
154068,3034747,1779111124220,-0.73,8.39,3.92,-35.3125,-33.0,2.0625,-0.7565918,-0.3272705,-0.3718872,-0.42681885,2026-05-18T18:11:01.037491,2,Device1,1
154071,3034768,1779111124255,-0.71,8.4,3.93,-35.9375,-22.4375,1.9375,-0.7595215,-0.32391357,-0.3670044,-0.42834473,2026-05-18T18:11:01.037491,2,Device1,1
154073,3034785,1779111124289,-1.56,8.55,4.5,-40.9375,3.625,2.1875,-0.76257324,-0.31976318,-0.3633423,-0.42919922,2026-05-18T18:11:01.037491,2,Device1,1
154074,3034814,1779111124289,-2.18,8.65,4.85,-44.6875,1.875,3.75,-0.76446533,-0.31402588,-0.3604126,-0.43249512,2026-05-18T18:11:01.037491,2,Device1,1
154076,3034856,1779111124312,-0.43,9.35,5.79,-50.5625,-29.3125,4.875,-0.7728882,-0.30273438,-0.34405518,-0.43884277,2026-05-18T18:11:01.037491,2,Device1,1
154078,3034832,1779111124312,-1.99,8.86,5.39,-47.0,-14.125,6.125,-0.76708984,-0.30914307,-0.35546875,-0.43554688,2026-05-18T18:11:01.037491,2,Device1,1
154080,3034895,1779111124338,0.57,9.85,6.77,-60.3125,-28.3125,1.0,-0.77948,-0.29473877,-0.3317871,-0.44207764,2026-05-18T18:11:01.037491,2,Device1,1
154081,3034872,1779111124338,0.1,9.68,6.07,-55.1875,-29.1875,3.6875,-0.7750244,-0.300354,-0.33996582,-0.4399414,2026-05-18T18:11:01.037491,2,Device1,1
154083,3034917,1779111124367,0.94,9.97,7.02,-65.5625,-31.9375,-2.25,-0.78723145,-0.2852173,-0.31817627,-0.44470215,2026-05-18T18:11:01.037491,2,Device1,1
154086,3034936,1779111124399,0.87,9.78,7.0,-73.0625,-52.0,-7.5,-0.7939453,-0.2789917,-0.30645752,-0.44482422,2026-05-18T18:11:01.037491,2,Device1,1
154087,3034958,1779111124400,1.08,9.81,7.62,-74.5,-63.625,-11.75,-0.802063,-0.27337646,-0.29211426,-0.4434204,2026-05-18T18:11:01.037491,2,Device1,1
154089,3034971,1779111124437,2.19,10.09,8.08,-76.5,-87.5,-20.4375,-0.80670166,-0.27093506,-0.28375244,-0.44189453,2026-05-18T18:11:01.037491,2,Device1,1
154092,3035016,1779111124461,4.91,10.44,7.9,-75.3125,-114.4375,-41.5625,-0.83428955,-0.26104736,-0.23590088,-0.4244995,2026-05-18T18:11:01.037491,2,Device1,1
154093,3034997,1779111124461,2.96,10.11,7.91,-76.5625,-105.0,-28.1875,-0.822876,-0.26519775,-0.25524902,-0.43292236,2026-05-18T18:11:01.037491,2,Device1,1
154095,3035034,1779111124487,5.22,10.85,8.0,-74.375,-108.75,-59.3125,-0.847229,-0.25628662,-0.21765137,-0.41125488,2026-05-18T18:11:01.037491,2,Device1,1
154098,3035057,1779111124519,4.73,11.01,7.65,-69.5,-100.5625,-76.375,-0.8592529,-0.25042725,-0.20227051,-0.397583,2026-05-18T18:11:01.037491,2,Device1,1
154099,3035073,1779111124519,4.37,11.36,7.65,-61.1875,-92.375,-101.4375,-0.8720093,-0.24414062,-0.18969727,-0.37945557,2026-05-18T18:11:01.037491,2,Device1,1
154101,3035098,1779111124549,4.19,12.22,7.24,-51.875,-78.3125,-145.8125,-0.88531494,-0.23693848,-0.18005371,-0.35723877,2026-05-18T18:11:01.037491,2,Device1,1
154104,3035117,1779111124578,2.35,12.12,5.61,-52.75,-66.75,-176.3125,-0.899292,-0.22808838,-0.1730957,-0.33062744,2026-05-18T18:11:01.037491,2,Device1,1
154106,3035144,1779111124608,0.49,10.01,4.73,-61.5,-57.375,-210.0625,-0.9138794,-0.2164917,-0.16845703,-0.29925537,2026-05-18T18:11:01.037491,2,Device1,1
154107,3035164,1779111124609,-1.98,3.76,4.97,-72.5,-63.0625,-244.5,-0.9371338,-0.19378662,-0.1609497,-0.24139404,2026-05-18T18:11:01.037491,2,Device1,1
154110,3035188,1779111124640,-2.51,-1.45,7.32,-74.125,-110.25,-298.9375,-0.9528198,-0.17767334,-0.15124512,-0.19403076,2026-05-18T18:11:01.037491,2,Device1,1
154112,3035209,1779111124668,-0.25,-11.25,6.78,-87.75,-170.625,-361.8125,-0.9684448,-0.16027832,-0.13378906,-0.1359253,2026-05-18T18:11:01.037491,2,Device1,1
154113,3035226,1779111124673,4.2,-20.37,5.15,-103.375,-187.25,-398.9375,-0.9819336,-0.13696289,-0.11206055,-0.0670166,2026-05-18T18:11:01.037491,2,Device1,1
154116,3035245,1779111124698,3.42,-33.64,7.85,-70.75,-55.875,-324.75,-0.98779297,-0.11663818,-0.10290527,-0.0078125,2026-05-18T18:11:01.037491,2,Device1,1
154118,3035267,1779111124730,-14.44,-2.86,10.88,-9.375,73.9375,-253.9375,-0.98651123,-0.10864258,-0.11706543,0.035583496,2026-05-18T18:11:01.037491,2,Device1,1
154119,3035285,1779111124730,-14.81,1.02,12.13,-10.625,-56.125,-90.0625,-0.98583984,-0.1048584,-0.11645508,0.059387207,2026-05-18T18:11:01.037491,2,Device1,1
154122,3035309,1779111124758,-0.88,-2.2,8.76,-18.0625,-103.8125,-45.5625,-0.9876709,-0.1003418,-0.10089111,0.06524658,2026-05-18T18:11:01.037491,2,Device1,1
154124,3035325,1779111124791,1.04,-1.37,9.14,-23.75,-51.9375,11.9375,-0.9883423,-0.09814453,-0.09661865,0.064453125,2026-05-18T18:11:01.037491,2,Device1,1
154125,3035344,1779111124791,-0.4,-3.33,10.4,-21.75,0.25,9.1875,-0.98931885,-0.09197998,-0.09490967,0.061401367,2026-05-18T18:11:01.037491,2,Device1,1
154128,3035369,1779111124821,-2.16,-1.57,10.72,-12.75,-18.4375,-0.875,-0.9898071,-0.08935547,-0.09283447,0.061157227,2026-05-18T18:11:01.037491,2,Device1,1
154130,3035389,1779111124850,-1.02,-1.47,9.67,-9.125,-22.25,-7.125,-0.9902344,-0.08746338,-0.08898926,0.062194824,2026-05-18T18:11:01.037491,2,Device1,1
154133,3035409,1779111124879,0.42,-0.77,9.45,-13.4375,17.625,-15.125,-0.99017334,-0.08526611,-0.09033203,0.064086914,2026-05-18T18:11:01.037491,2,Device1,1
154134,3035427,1779111124879,-2.24,-1.5,9.96,-10.6875,38.0,-14.9375,-0.989624,-0.08331299,-0.09686279,0.06561279,2026-05-18T18:11:01.037491,2,Device1,1
154136,3035454,1779111124909,-2.93,-1.46,9.89,-2.0625,24.125,-6.375,-0.98913574,-0.08282471,-0.10168457,0.06665039,2026-05-18T18:11:01.037491,2,Device1,1
154137,3035464,1779111124913,-2.92,-1.33,9.74,2.0625,24.5625,7.1875,-0.9887085,-0.08331299,-0.10559082,0.06573486,2026-05-18T18:11:01.037491,2,Device1,1
154140,3035489,1779111124941,-3.05,-1.13,9.36,2.375,25.125,20.3125,-0.98846436,-0.08428955,-0.10961914,0.06213379,2026-05-18T18:11:01.037491,2,Device1,1
154143,3035506,1779111124970,-2.95,-1.31,9.73,1.8125,19.125,27.25,-0.98828125,-0.08532715,-0.11273193,0.057556152,2026-05-18T18:11:01.037491,2,Device1,1
154142,3035523,1779111124971,-2.75,-1.35,9.86,2.875,14.5625,29.4375,-0.9883423,-0.086364746,-0.11462402,0.05029297,2026-05-18T18:11:01.037491,2,Device1,1
154146,3035547,1779111124999,-2.52,-1.33,9.94,6.5,6.5,33.0625,-0.9884033,-0.08807373,-0.115356445,0.04486084,2026-05-18T18:11:01.037491,2,Device1,1
154148,3035588,1779111125034,-1.99,-1.6,9.82,9.3125,5.375,36.0625,-0.98846436,-0.09234619,-0.11553955,0.0335083,2026-05-18T18:11:01.037491,2,Device1,1
154150,3035566,1779111125034,-2.1,-1.31,9.86,8.1875,2.875,34.5,-0.98846436,-0.09008789,-0.115356445,0.039245605,2026-05-18T18:11:01.037491,2,Device1,1
154152,3035608,1779111125066,-1.86,-1.74,9.71,13.125,12.0,40.1875,-0.9882202,-0.09515381,-0.11657715,0.02709961,2026-05-18T18:11:01.037491,2,Device1,1
154154,3035627,1779111125090,-1.74,-1.5,9.65,17.0,18.8125,46.375,-0.987854,-0.09869385,-0.118652344,0.018798828,2026-05-18T18:11:01.037491,2,Device1,1
154157,3035654,1779111125119,-2.17,-1.58,9.57,20.0,29.8125,51.875,-0.98706055,-0.103027344,-0.12225342,0.010253906,2026-05-18T18:11:01.037491,2,Device1,1
154158,3035671,1779111125120,-2.89,-1.7,9.86,22.6875,37.25,58.9375,-0.98602295,-0.107910156,-0.12713623,0.00061035156,2026-05-18T18:11:01.037491,2,Device1,1
154160,3035698,1779111125150,-3.25,-1.89,9.62,26.875,42.125,66.6875,-0.9837036,-0.11669922,-0.13562012,-0.01727295,2026-05-18T18:11:01.037491,2,Device1,1
154163,3035715,1779111125182,-3.1,-2.34,9.22,33.8125,37.0,80.25,-0.98187256,-0.12384033,-0.1404419,-0.030212402,2026-05-18T18:11:01.037491,2,Device1,1
154164,3035738,1779111125182,-3.13,-1.12,9.55,35.5625,35.8125,83.5625,-0.97961426,-0.1315918,-0.14483643,-0.044677734,2026-05-18T18:11:01.037491,2,Device1,1
154167,3035759,1779111125217,-3.44,-0.62,9.37,38.1875,41.0,88.75,-0.97698975,-0.13970947,-0.14978027,-0.0592041,2026-05-18T18:11:01.037491,2,Device1,1
154169,3035775,1779111125244,-3.5,-1.58,9.18,41.5625,42.75,94.125,-0.9737549,-0.14794922,-0.15527344,-0.076416016,2026-05-18T18:11:01.037491,2,Device1,1
154171,3035798,1779111125268,-3.74,-1.68,9.36,45.0,43.3125,96.9375,-0.9699707,-0.15765381,-0.1605835,-0.09234619,2026-05-18T18:11:01.037491,2,Device1,1
154172,3035818,1779111125272,-4.03,-0.26,8.9,52.375,46.1875,100.0,-0.9654541,-0.16845703,-0.16656494,-0.10870361,2026-05-18T18:11:01.037491,2,Device1,1
154175,3035837,1779111125299,-3.18,-0.44,7.72,66.8125,63.1875,107.125,-0.9597168,-0.18060303,-0.1743164,-0.1262207,2026-05-18T18:11:01.037491,2,Device1,1
154177,3035864,1779111125328,-3.6,1.16,7.83,74.6875,88.0625,109.4375,-0.94818115,-0.20031738,-0.19311523,-0.15356445,2026-05-18T18:11:01.037491,2,Device1,1
154178,3035880,1779111125329,-4.51,2.21,8.14,71.3125,121.0625,112.1875,-0.94329834,-0.20611572,-0.20196533,-0.16412354,2026-05-18T18:11:01.037491,2,Device1,1
154181,3035904,1779111125364,-5.26,3.51,7.54,64.4375,142.3125,119.3125,-0.9324951,-0.21673584,-0.22174072,-0.1852417,2026-05-18T18:11:01.037491,2,Device1,1
154183,3035939,1779111125396,-5.84,5.17,6.77,59.5625,119.0,132.25,-0.90789795,-0.23651123,-0.25787354,-0.23077393,2026-05-18T18:11:01.037491,2,Device1,1
154184,3035922,1779111125396,-5.52,4.06,7.1,60.3125,140.4375,127.0625,-0.9205322,-0.22644043,-0.24121094,-0.2078247,2026-05-18T18:11:01.037491,2,Device1,1
154187,3035965,1779111125423,-5.29,5.28,6.7,55.0,86.375,137.5,-0.895813,-0.24731445,-0.26904297,-0.25286865,2026-05-18T18:11:01.037491,2,Device1,1
154189,3035982,1779111125450,-3.21,4.98,6.59,57.1875,61.3125,141.4375,-0.8835449,-0.258667,-0.27600098,-0.276062,2026-05-18T18:11:01.037491,2,Device1,1
154190,3036003,1779111125450,-1.87,6.78,6.57,63.5,67.375,137.625,-0.8710327,-0.2713623,-0.28222656,-0.2966919,2026-05-18T18:11:01.037491,2,Device1,1
154193,3036018,1779111125480,-2.23,7.58,6.47,63.5625,91.8125,129.9375,-0.85705566,-0.2826538,-0.29187012,-0.31677246,2026-05-18T18:11:01.037491,2,Device1,1
154194,3036039,1779111125480,-2.49,7.47,6.61,61.875,102.9375,130.9375,-0.84155273,-0.2923584,-0.30371094,-0.33776855,2026-05-18T18:11:01.037491,2,Device1,1
154196,3036063,1779111125508,-1.53,7.57,6.29,63.875,97.75,128.375,-0.82562256,-0.30212402,-0.3149414,-0.35760498,2026-05-18T18:11:01.037491,2,Device1,1
154199,3036078,1779111125538,-1.15,8.67,6.42,65.625,98.125,123.3125,-0.80792236,-0.31085205,-0.32702637,-0.37908936,2026-05-18T18:11:01.037491,2,Device1,1
154201,3036120,1779111125573,-0.01,7.91,5.72,59.875,81.9375,111.0,-0.77557373,-0.32843018,-0.34698486,-0.41259766,2026-05-18T18:11:01.037491,2,Device1,1
154202,3036105,1779111125573,-1.12,8.79,6.32,62.625,93.375,116.5,-0.7914429,-0.31976318,-0.3378296,-0.3965454,2026-05-18T18:11:01.037491,2,Device1,1
154204,3036147,1779111125599,0.52,7.72,5.43,57.375,78.3125,102.3125,-0.7600708,-0.3366089,-0.35546875,-0.42736816,2026-05-18T18:11:01.037491,2,Device1,1
154207,3036165,1779111125628,-0.94,7.56,5.93,51.375,84.9375,91.625,-0.73724365,-0.3460083,-0.36920166,-0.4477539,2026-05-18T18:11:01.037491,2,Device1,1
154208,3036184,1779111125630,-0.44,7.89,5.76,50.6875,72.0,84.125,-0.7241211,-0.35247803,-0.37597656,-0.458313,2026-05-18T18:11:01.037491,2,Device1,1
154211,3036209,1779111125658,-0.08,7.99,4.55,48.125,37.5,75.375,-0.71343994,-0.3604126,-0.37908936,-0.46624756,2026-05-18T18:11:01.037491,2,Device1,1
154213,3036245,1779111125691,1.13,8.51,5.84,23.0,28.6875,46.875,-0.6970215,-0.371521,-0.38269043,-0.47924805,2026-05-18T18:11:01.037491,2,Device1,1
154214,3036220,1779111125691,0.55,8.44,3.74,41.375,19.5625,67.875,-0.7088623,-0.36431885,-0.37982178,-0.4696045,2026-05-18T18:11:01.037491,2,Device1,1
154217,3036265,1779111125718,0.07,8.04,6.88,19.75,32.0,42.8125,-0.6906128,-0.3741455,-0.3850708,-0.48461914,2026-05-18T18:11:01.037491,2,Device1,1
154218,3036280,1779111125720,0.21,8.06,5.75,19.75,10.1875,36.75,-0.68811035,-0.37609863,-0.38531494,-0.4864502,2026-05-18T18:11:01.037491,2,Device1,1
154220,3036305,1779111125747,1.49,8.38,3.96,18.6875,-22.625,26.4375,-0.68408203,-0.38452148,-0.38189697,-0.48815918,2026-05-18T18:11:01.037491,2,Device1,1
154223,3036321,1779111125777,2.41,8.59,3.02,16.0,-16.125,20.4375,-0.6832886,-0.3867798,-0.38098145,-0.48828125,2026-05-18T18:11:01.037491,2,Device1,1
154225,3036346,1779111125808,1.45,8.68,4.63,8.75,21.0,0.0,-0.6812134,-0.38775635,-0.38354492,-0.48828125,2026-05-18T18:11:01.037491,2,Device1,1
154228,3036367,1779111125839,-0.38,8.0,5.37,13.0,17.125,-13.6875,-0.68078613,-0.38745117,-0.38726807,-0.48620605,2026-05-18T18:11:01.037491,2,Device1,1
154229,3036382,1779111125840,-0.26,8.07,4.54,21.3125,-2.25,-23.8125,-0.6814575,-0.38824463,-0.3885498,-0.48358154,2026-05-18T18:11:01.037491,2,Device1,1
154231,3036410,1779111125871,0.3,9.0,2.93,23.875,-8.3125,-28.75,-0.6833496,-0.39038086,-0.39300537,-0.47558594,2026-05-18T18:11:01.037491,2,Device1,1
154232,3036422,1779111125873,0.46,9.27,2.46,23.8125,-0.8125,-33.25,-0.68395996,-0.39068604,-0.39501953,-0.47283936,2026-05-18T18:11:01.037491,2,Device1,1
154234,3036445,1779111125900,0.23,9.6,2.22,26.375,17.0625,-40.6875,-0.68548584,-0.39038086,-0.40319824,-0.46380615,2026-05-18T18:11:01.037491,2,Device1,1
154237,3036486,1779111125930,-2.16,9.85,2.48,46.3125,9.5625,-21.9375,-0.6826172,-0.39190674,-0.41778564,-0.45373535,2026-05-18T18:11:01.037491,2,Device1,1
154238,3036466,1779111125930,-0.39,9.17,2.91,30.0625,24.0625,-39.625,-0.6845093,-0.38964844,-0.4111328,-0.45892334,2026-05-18T18:11:01.037491,2,Device1,1
154241,3036509,1779111125960,-2.15,9.81,2.22,50.5625,-4.125,-16.375,-0.68096924,-0.39752197,-0.4216919,-0.4477539,2026-05-18T18:11:01.037491,2,Device1,1
154243,3036527,1779111125989,0.65,10.05,2.04,48.0625,-2.9375,-8.0,-0.6786499,-0.40301514,-0.42529297,-0.4428711,2026-05-18T18:11:01.037491,2,Device1,1
154244,3036546,1779111125990,0.85,10.1,2.86,37.375,27.375,-4.5,-0.6748657,-0.40563965,-0.43096924,-0.4407959,2026-05-18T18:11:01.037491,2,Device1,1
154247,3036569,1779111126018,-0.03,10.15,3.03,33.0625,35.0,-2.625,-0.670166,-0.40649414,-0.4375,-0.44067383,2026-05-18T18:11:01.037491,2,Device1,1
154250,3036587,1779111126052,-1.08,9.93,3.72,26.625,24.5,-2.3125,-0.6663208,-0.4072876,-0.44293213,-0.44036865,2026-05-18T18:11:01.037491,2,Device1,1
154251,3036608,1779111126053,-1.45,9.83,3.66,25.9375,-5.5,-5.0,-0.6646118,-0.409729,-0.4454956,-0.4381714,2026-05-18T18:11:01.037491,2,Device1,1
154253,3036625,1779111126078,-0.75,10.17,3.72,24.5,-25.125,-6.125,-0.666687,-0.41497803,-0.44335938,-0.4321289,2026-05-18T18:11:01.037491,2,Device1,1
154255,3036647,1779111126116,0.36,10.15,3.97,21.25,-50.125,-13.5,-0.670166,-0.41955566,-0.44024658,-0.42541504,2026-05-18T18:11:01.037491,2,Device1,1
154258,3036668,1779111126143,1.59,10.51,3.46,13.0,-40.5625,-20.3125,-0.6734619,-0.42156982,-0.43865967,-0.41986084,2026-05-18T18:11:01.037491,2,Device1,1
154259,3036682,1779111126144,0.87,10.88,3.3,1.25,-15.0,-24.6875,-0.6758423,-0.42230225,-0.43774414,-0.41625977,2026-05-18T18:11:01.037491,2,Device1,1
154261,3036706,1779111126175,-0.92,11.16,2.67,-17.875,-3.5,-26.4375,-0.6804199,-0.41778564,-0.43859863,-0.41241455,2026-05-18T18:11:01.037491,2,Device1,1
154264,3036729,1779111126203,-1.4,11.34,2.92,-29.0625,-19.8125,-21.5625,-0.68573,-0.414917,-0.4359131,-0.40942383,2026-05-18T18:11:01.037491,2,Device1,1
154265,3036756,1779111126203,-1.64,11.77,3.42,-39.0625,-42.25,-12.4375,-0.6920166,-0.41204834,-0.43017578,-0.40777588,2026-05-18T18:11:01.037491,2,Device1,1
154267,3036769,1779111126229,-1.23,11.98,4.06,-48.1875,-61.5,-2.9375,-0.699646,-0.41015625,-0.42071533,-0.40649414,2026-05-18T18:11:01.037491,2,Device1,1
154270,3036794,1779111126259,-0.53,12.17,3.99,-56.25,-76.0,9.375,-0.7125244,-0.40893555,-0.40039062,-0.4058838,2026-05-18T18:11:01.037491,2,Device1,1
154271,3036814,1779111126260,0.52,12.07,3.99,-64.0625,-77.125,18.6875,-0.7166748,-0.4083252,-0.3928833,-0.40649414,2026-05-18T18:11:01.037491,2,Device1,1
154273,3036829,1779111126289,1.36,12.26,4.08,-71.3125,-69.8125,27.1875,-0.72595215,-0.4078369,-0.37609863,-0.4064331,2026-05-18T18:11:01.037491,2,Device1,1
154276,3036854,1779111126320,2.45,12.31,4.08,-80.8125,-54.8125,33.5625,-0.7359619,-0.4017334,-0.3540039,-0.41436768,2026-05-18T18:11:01.037491,2,Device1,1
154277,3036869,1779111126321,2.87,12.23,4.31,-90.0625,-50.0625,34.875,-0.7392578,-0.39892578,-0.34655762,-0.4175415,2026-05-18T18:11:01.037491,2,Device1,1
154279,3036894,1779111126350,3.57,13.35,3.58,-92.125,-62.1875,27.8125,-0.7467041,-0.39331055,-0.3305664,-0.42248535,2026-05-18T18:11:01.037491,2,Device1,1
154282,3036910,1779111126379,4.58,13.65,2.93,-95.3125,-79.3125,19.5,-0.7554321,-0.38787842,-0.3128662,-0.42541504,2026-05-18T18:11:01.037491,2,Device1,1
154283,3036933,1779111126380,5.28,13.5,2.36,-103.0,-91.4375,9.9375,-0.76568604,-0.38201904,-0.29333496,-0.42633057,2026-05-18T18:11:01.037491,2,Device1,1
154285,3036956,1779111126409,5.02,13.67,2.25,-113.875,-106.5,-1.0,-0.77752686,-0.37493896,-0.27197266,-0.42529297,2026-05-18T18:11:01.037491,2,Device1,1
154288,3036974,1779111126440,5.29,13.76,2.42,-124.9375,-121.6875,-13.75,-0.7911377,-0.36688232,-0.24804688,-0.421875,2026-05-18T18:11:01.037491,2,Device1,1
154289,3036991,1779111126441,5.58,13.62,2.71,-135.25,-123.4375,-35.5625,-0.8064575,-0.35662842,-0.22363281,-0.41522217,2026-05-18T18:11:01.037491,2,Device1,1
154291,3037017,1779111126470,4.1,13.44,2.89,-146.3125,-125.6875,-57.6875,-0.8230591,-0.34362793,-0.199646,-0.40570068,2026-05-18T18:11:01.037491,2,Device1,1
154294,3037035,1779111126499,2.87,13.17,2.96,-157.8125,-145.0,-77.6875,-0.8508301,-0.321167,-0.15948486,-0.38409424,2026-05-18T18:11:01.037491,2,Device1,1
154295,3037056,1779111126500,1.69,12.0,4.16,-169.6875,-170.5,-104.1875,-0.8609009,-0.31298828,-0.14453125,-0.3741455,2026-05-18T18:11:01.037491,2,Device1,1
154296,3037070,1779111126529,0.93,10.54,5.62,-179.6875,-182.6875,-141.125,-0.881958,-0.29510498,-0.11383057,-0.34936523,2026-05-18T18:11:01.037491,2,Device1,1
154300,3037095,1779111126561,0.05,6.23,5.68,-188.875,-196.3125,-179.625,-0.91467285,-0.26391602,-0.06652832,-0.2987671,2026-05-18T18:11:01.037491,2,Device1,1
154302,3037118,1779111126592,0.56,2.66,5.39,-204.6875,-204.25,-224.0,-0.93621826,-0.2390747,-0.03503418,-0.25512695,2026-05-18T18:11:01.037491,2,Device1,1
154303,3037137,1779111126593,1.59,-4.92,5.79,-215.4375,-193.8125,-290.0,-0.9558716,-0.21154785,-0.0061035156,-0.20373535,2026-05-18T18:11:01.037491,2,Device1,1
154305,3037167,1779111126626,2.24,-13.39,7.46,-223.75,-167.4375,-326.6875,-0.9724121,-0.18103027,0.018676758,-0.14575195,2026-05-18T18:11:01.037491,2,Device1,1
154308,3037181,1779111126653,1.06,-21.8,6.91,-226.3125,-96.125,-341.6875,-0.9848633,-0.1473999,0.032714844,-0.08532715,2026-05-18T18:11:01.037491,2,Device1,1
154310,3037206,1779111126661,-6.67,-26.94,8.94,-142.125,-61.625,-272.9375,-0.9935303,-0.10595703,0.04107666,-0.0059814453,2026-05-18T18:11:01.037491,2,Device1,1
154312,3037225,1779111126686,-5.89,-13.89,9.57,-112.1875,-79.5625,-235.9375,-0.9940796,-0.090148926,0.051879883,0.03100586,2026-05-18T18:11:01.037491,2,Device1,1
154314,3037246,1779111126710,-6.09,-5.22,9.32,-73.375,-104.375,-115.8125,-0.9937744,-0.084228516,0.059570312,0.041809082,2026-05-18T18:11:01.037491,2,Device1,1
154315,3037267,1779111126710,0.71,-3.66,6.97,-36.0,-117.125,-9.625,-0.9923706,-0.07336426,0.086364746,0.04864502,2026-05-18T18:11:01.037491,2,Device1,1
154318,3037281,1779111126741,5.9,-2.52,6.69,-27.375,-58.5,29.4375,-0.99212646,-0.07043457,0.091430664,0.048706055,2026-05-18T18:11:01.037491,2,Device1,1
154320,3037308,1779111126769,5.05,-2.63,7.76,-26.375,-15.625,4.75,-0.9921875,-0.06347656,0.095947266,0.04815674,2026-05-18T18:11:01.037491,2,Device1,1
154321,3037322,1779111126771,4.17,-1.87,8.54,-24.5,0.0,-13.5,-0.99224854,-0.061523438,0.09576416,0.04949951,2026-05-18T18:11:01.037491,2,Device1,1
154324,3037347,1779111126802,1.6,-1.99,10.46,-23.0625,13.0625,-6.8125,-0.99261475,-0.055847168,0.09313965,0.053955078,2026-05-18T18:11:01.037491,2,Device1,1
154326,3037366,1779111126828,0.09,-2.05,11.38,-14.5,-29.625,9.1875,-0.9924927,-0.05279541,0.09667969,0.05328369,2026-05-18T18:11:01.037491,2,Device1,1
154329,3037416,1779111126860,4.15,-1.88,10.04,-7.0625,15.125,10.6875,-0.99261475,-0.04949951,0.09881592,0.0501709,2026-05-18T18:11:01.037491,2,Device1,1
154330,3037391,1779111126860,4.07,-1.91,10.31,-8.75,-13.5,9.875,-0.9923096,-0.05078125,0.10028076,0.051879883,2026-05-18T18:11:01.037491,2,Device1,1
154332,3037429,1779111126889,3.18,-1.36,10.6,-8.8125,18.1875,6.6875,-0.993042,-0.048034668,0.095581055,0.048828125,2026-05-18T18:11:01.037491,2,Device1,1
154335,3037450,1779111126920,3.47,-1.26,10.07,-3.3125,18.0625,-1.1875,-0.99334717,-0.047302246,0.09277344,0.04864502,2026-05-18T18:11:01.037491,2,Device1,1
154336,3037469,1779111126921,2.0,-1.77,9.97,-0.1875,36.75,0.8125,-0.99383545,-0.047546387,0.08734131,0.04852295,2026-05-18T18:11:01.037491,2,Device1,1
154338,3037490,1779111126948,1.87,-1.09,10.06,-2.0625,32.75,14.1875,-0.9944458,-0.04748535,0.08148193,0.046203613,2026-05-18T18:11:01.037491,2,Device1,1
154341,3037514,1779111126984,2.91,-1.01,9.75,-3.1875,22.1875,10.75,-0.9949341,-0.046936035,0.07739258,0.043945312,2026-05-18T18:11:01.037491,2,Device1,1
154343,3037530,1779111127011,3.22,-1.25,9.4,-2.0,22.5,2.4375,-0.99523926,-0.046691895,0.073913574,0.04296875,2026-05-18T18:11:01.037491,2,Device1,1
154344,3037554,1779111127011,2.13,-1.79,9.56,0.0625,36.0,4.125,-0.9956665,-0.04675293,0.06842041,0.042236328,2026-05-18T18:11:01.037491,2,Device1,1
